"success","timeout","failed_images","failed_audio","failed_video","trial_type","trial_index","plugin_version","time_elapsed","run_id","condition","recorded_at","source_code_version","ip","user_agent","device","browser","browser_version","platform","platform_version","referer","accept_language","PROLIFIC_PID","STUDY_ID","SESSION_ID","subject_id","study_id","session_id","pair_count","randomized_pair_order","block1_codes","block2_codes","max_run_block1","max_run_block2","fullscreen_exit_count","tab_switch_count","video_attention_failure_count","total_attention_violation_count","view_history","rt","stimulus","response","trial_kind","question_order","spacebar_question_answer","attention_question_answer","spacebar_question_correct","attention_question_correct","instruction_check_passed","demo_index","demo_code","stimulus_file","stimulus_name","predictability","boundary_times_sec","boundary_count","value","video_code","pair_number","block","global_position_in_block","min_press_gap_sec","no_press_failure","rapid_press_failure","video_attention_failed","video_attention_failure_type","last_video_had_any_attention_violation","current_video_fullscreen_exit_count","current_video_tab_switch_count","current_video_had_fullscreen_exit","current_video_had_tab_switch","current_video_had_video_attention_failure","skipped_video_debug","confidence_rating"
"true","false","[]","[]","[]","preload","0","2.0.0","3404","68","1","2026-06-08 14:06:08","segmentation_norming_randomized_order_maxrun_attention_v4","142.118.156.189","Mozilla/5.0 (Windows NT 10.0; Win64; x64) AppleWebKit/537.36 (KHTML, like Gecko) Chrome/149.0.0.0 Safari/537.36","WebKit","Chrome","149.0.0.0","Windows","10.0","https://uencdihehs.cognition.run/?PROLIFIC_PID=699f870f1185d9ba60a6e928&STUDY_ID=6a230fc25d128c9d1b56061a&STUDY_ID=6a230fc25d128c9d1b56061a&SESSION_ID=6a26cc1c8b7ff817bd9d90a3?PROLIFIC_PID=699f870f1185d9ba60a6e928&SESSION_ID=6a26cc1c8b7ff817bd9d90a3?","en-US,en;q=0.9","699f870f1185d9ba60a6e928","6a230fc25d128c9d1b56061a","6a26cc1c8b7ff817bd9d90a3?","699f870f1185d9ba60a6e928","6a230fc25d128c9d1b56061a","6a26cc1c8b7ff817bd9d90a3?","30","[16,19,14,30,15,13,24,28,25,21,4,20,7,5,22,1,10,17,18,11,3,23,29,9,12,8,26,2,27,6]","[""P16"",""U19"",""P14"",""U30"",""P15"",""P13"",""P24"",""U28"",""P25"",""U21"",""P4"",""U20"",""P7"",""U5"",""P22"",""P1"",""U10"",""P17"",""U18"",""P11"",""U3"",""U23"",""P29"",""U9"",""U12"",""P8"",""U26"",""U2"",""P27"",""U6""]","[""U16"",""P19"",""U14"",""P30"",""U15"",""U13"",""U24"",""P28"",""U25"",""P21"",""U4"",""P20"",""U7"",""P5"",""U22"",""U1"",""P10"",""U17"",""P18"",""U11"",""P3"",""P23"",""U29"",""P9"",""P12"",""U8"",""P26"",""P2"",""U27"",""P6""]","3","3","0","0","1","1","","","","","","","","","","","","","","","","","","","","","","","","","","","","","","","","","","","",""
"","","","","","instructions","1","2.0.0","17824","68","1","2026-06-08 14:06:08","segmentation_norming_randomized_order_maxrun_attention_v4","142.118.156.189","Mozilla/5.0 (Windows NT 10.0; Win64; x64) AppleWebKit/537.36 (KHTML, like Gecko) Chrome/149.0.0.0 Safari/537.36","WebKit","Chrome","149.0.0.0","Windows","10.0","https://uencdihehs.cognition.run/?PROLIFIC_PID=699f870f1185d9ba60a6e928&STUDY_ID=6a230fc25d128c9d1b56061a&STUDY_ID=6a230fc25d128c9d1b56061a&SESSION_ID=6a26cc1c8b7ff817bd9d90a3?PROLIFIC_PID=699f870f1185d9ba60a6e928&SESSION_ID=6a26cc1c8b7ff817bd9d90a3?","en-US,en;q=0.9","699f870f1185d9ba60a6e928","6a230fc25d128c9d1b56061a","6a26cc1c8b7ff817bd9d90a3?","699f870f1185d9ba60a6e928","6a230fc25d128c9d1b56061a","6a26cc1c8b7ff817bd9d90a3?","30","[16,19,14,30,15,13,24,28,25,21,4,20,7,5,22,1,10,17,18,11,3,23,29,9,12,8,26,2,27,6]","[""P16"",""U19"",""P14"",""U30"",""P15"",""P13"",""P24"",""U28"",""P25"",""U21"",""P4"",""U20"",""P7"",""U5"",""P22"",""P1"",""U10"",""P17"",""U18"",""P11"",""U3"",""U23"",""P29"",""U9"",""U12"",""P8"",""U26"",""U2"",""P27"",""U6""]","[""U16"",""P19"",""U14"",""P30"",""U15"",""U13"",""U24"",""P28"",""U25"",""P21"",""U4"",""P20"",""U7"",""P5"",""U22"",""U1"",""P10"",""U17"",""P18"",""U11"",""P3"",""P23"",""U29"",""P9"",""P12"",""U8"",""P26"",""P2"",""U27"",""P6""]","3","3","0","0","1","1","[{""page_index"":0,""viewing_time"":14420}]","14420","","","","","","","","","","","","","","","","","","","","","","","","","","","","","","","","","",""
"true","","","","","fullscreen","2","2.0.0","22508","68","1","2026-06-08 14:06:08","segmentation_norming_randomized_order_maxrun_attention_v4","142.118.156.189","Mozilla/5.0 (Windows NT 10.0; Win64; x64) AppleWebKit/537.36 (KHTML, like Gecko) Chrome/149.0.0.0 Safari/537.36","WebKit","Chrome","149.0.0.0","Windows","10.0","https://uencdihehs.cognition.run/?PROLIFIC_PID=699f870f1185d9ba60a6e928&STUDY_ID=6a230fc25d128c9d1b56061a&STUDY_ID=6a230fc25d128c9d1b56061a&SESSION_ID=6a26cc1c8b7ff817bd9d90a3?PROLIFIC_PID=699f870f1185d9ba60a6e928&SESSION_ID=6a26cc1c8b7ff817bd9d90a3?","en-US,en;q=0.9","699f870f1185d9ba60a6e928","6a230fc25d128c9d1b56061a","6a26cc1c8b7ff817bd9d90a3?","699f870f1185d9ba60a6e928","6a230fc25d128c9d1b56061a","6a26cc1c8b7ff817bd9d90a3?","30","[16,19,14,30,15,13,24,28,25,21,4,20,7,5,22,1,10,17,18,11,3,23,29,9,12,8,26,2,27,6]","[""P16"",""U19"",""P14"",""U30"",""P15"",""P13"",""P24"",""U28"",""P25"",""U21"",""P4"",""U20"",""P7"",""U5"",""P22"",""P1"",""U10"",""P17"",""U18"",""P11"",""U3"",""U23"",""P29"",""U9"",""U12"",""P8"",""U26"",""U2"",""P27"",""U6""]","[""U16"",""P19"",""U14"",""P30"",""U15"",""U13"",""U24"",""P28"",""U25"",""P21"",""U4"",""P20"",""U7"",""P5"",""U22"",""U1"",""P10"",""U17"",""P18"",""U11"",""P3"",""P23"",""U29"",""P9"",""P12"",""U8"",""P26"",""P2"",""U27"",""P6""]","3","3","0","0","1","1","","3674","","","","","","","","","","","","","","","","","","","","","","","","","","","","","","","","","",""
"","","","","","html-button-response","3","2.0.0","34231","68","1","2026-06-08 14:06:08","segmentation_norming_randomized_order_maxrun_attention_v4","142.118.156.189","Mozilla/5.0 (Windows NT 10.0; Win64; x64) AppleWebKit/537.36 (KHTML, like Gecko) Chrome/149.0.0.0 Safari/537.36","WebKit","Chrome","149.0.0.0","Windows","10.0","https://uencdihehs.cognition.run/?PROLIFIC_PID=699f870f1185d9ba60a6e928&STUDY_ID=6a230fc25d128c9d1b56061a&STUDY_ID=6a230fc25d128c9d1b56061a&SESSION_ID=6a26cc1c8b7ff817bd9d90a3?PROLIFIC_PID=699f870f1185d9ba60a6e928&SESSION_ID=6a26cc1c8b7ff817bd9d90a3?","en-US,en;q=0.9","699f870f1185d9ba60a6e928","6a230fc25d128c9d1b56061a","6a26cc1c8b7ff817bd9d90a3?","699f870f1185d9ba60a6e928","6a230fc25d128c9d1b56061a","6a26cc1c8b7ff817bd9d90a3?","30","[16,19,14,30,15,13,24,28,25,21,4,20,7,5,22,1,10,17,18,11,3,23,29,9,12,8,26,2,27,6]","[""P16"",""U19"",""P14"",""U30"",""P15"",""P13"",""P24"",""U28"",""P25"",""U21"",""P4"",""U20"",""P7"",""U5"",""P22"",""P1"",""U10"",""P17"",""U18"",""P11"",""U3"",""U23"",""P29"",""U9"",""U12"",""P8"",""U26"",""U2"",""P27"",""U6""]","[""U16"",""P19"",""U14"",""P30"",""U15"",""U13"",""U24"",""P28"",""U25"",""P21"",""U4"",""P20"",""U7"",""P5"",""U22"",""U1"",""P10"",""U17"",""P18"",""U11"",""P3"",""P23"",""U29"",""P9"",""P12"",""U8"",""P26"",""P2"",""U27"",""P6""]","3","3","0","0","1","1","","11721","The experiment requires continuous attention and full-screen participation throughout the task.<br><br>You may be asked to exit the experiment and cancel your participation if you exit Full Screen Mode, switch tabs, or fail to meet the attention criteria more than the allowed number of times.<br><br>Please read the following instructions carefully.","0","","","","","","","","","","","","","","","","","","","","","","","","","","","","","","","",""
"","","","","","instructions","4","2.0.0","102924","68","1","2026-06-08 14:06:08","segmentation_norming_randomized_order_maxrun_attention_v4","142.118.156.189","Mozilla/5.0 (Windows NT 10.0; Win64; x64) AppleWebKit/537.36 (KHTML, like Gecko) Chrome/149.0.0.0 Safari/537.36","WebKit","Chrome","149.0.0.0","Windows","10.0","https://uencdihehs.cognition.run/?PROLIFIC_PID=699f870f1185d9ba60a6e928&STUDY_ID=6a230fc25d128c9d1b56061a&STUDY_ID=6a230fc25d128c9d1b56061a&SESSION_ID=6a26cc1c8b7ff817bd9d90a3?PROLIFIC_PID=699f870f1185d9ba60a6e928&SESSION_ID=6a26cc1c8b7ff817bd9d90a3?","en-US,en;q=0.9","699f870f1185d9ba60a6e928","6a230fc25d128c9d1b56061a","6a26cc1c8b7ff817bd9d90a3?","699f870f1185d9ba60a6e928","6a230fc25d128c9d1b56061a","6a26cc1c8b7ff817bd9d90a3?","30","[16,19,14,30,15,13,24,28,25,21,4,20,7,5,22,1,10,17,18,11,3,23,29,9,12,8,26,2,27,6]","[""P16"",""U19"",""P14"",""U30"",""P15"",""P13"",""P24"",""U28"",""P25"",""U21"",""P4"",""U20"",""P7"",""U5"",""P22"",""P1"",""U10"",""P17"",""U18"",""P11"",""U3"",""U23"",""P29"",""U9"",""U12"",""P8"",""U26"",""U2"",""P27"",""U6""]","[""U16"",""P19"",""U14"",""P30"",""U15"",""U13"",""U24"",""P28"",""U25"",""P21"",""U4"",""P20"",""U7"",""P5"",""U22"",""U1"",""P10"",""U17"",""P18"",""U11"",""P3"",""P23"",""U29"",""P9"",""P12"",""U8"",""P26"",""P2"",""U27"",""P6""]","3","3","0","0","1","1","[{""page_index"":0,""viewing_time"":68689}]","68689","","","","","","","","","","","","","","","","","","","","","","","","","","","","","","","","","",""
"","","","","","html-button-response","5","2.0.0","115734","68","1","2026-06-08 14:06:08","segmentation_norming_randomized_order_maxrun_attention_v4","142.118.156.189","Mozilla/5.0 (Windows NT 10.0; Win64; x64) AppleWebKit/537.36 (KHTML, like Gecko) Chrome/149.0.0.0 Safari/537.36","WebKit","Chrome","149.0.0.0","Windows","10.0","https://uencdihehs.cognition.run/?PROLIFIC_PID=699f870f1185d9ba60a6e928&STUDY_ID=6a230fc25d128c9d1b56061a&STUDY_ID=6a230fc25d128c9d1b56061a&SESSION_ID=6a26cc1c8b7ff817bd9d90a3?PROLIFIC_PID=699f870f1185d9ba60a6e928&SESSION_ID=6a26cc1c8b7ff817bd9d90a3?","en-US,en;q=0.9","699f870f1185d9ba60a6e928","6a230fc25d128c9d1b56061a","6a26cc1c8b7ff817bd9d90a3?","699f870f1185d9ba60a6e928","6a230fc25d128c9d1b56061a","6a26cc1c8b7ff817bd9d90a3?","30","[16,19,14,30,15,13,24,28,25,21,4,20,7,5,22,1,10,17,18,11,3,23,29,9,12,8,26,2,27,6]","[""P16"",""U19"",""P14"",""U30"",""P15"",""P13"",""P24"",""U28"",""P25"",""U21"",""P4"",""U20"",""P7"",""U5"",""P22"",""P1"",""U10"",""P17"",""U18"",""P11"",""U3"",""U23"",""P29"",""U9"",""U12"",""P8"",""U26"",""U2"",""P27"",""U6""]","[""U16"",""P19"",""U14"",""P30"",""U15"",""U13"",""U24"",""P28"",""U25"",""P21"",""U4"",""P20"",""U7"",""P5"",""U22"",""U1"",""P10"",""U17"",""P18"",""U11"",""P3"",""P23"",""U29"",""P9"",""P12"",""U8"",""P26"",""P2"",""U27"",""P6""]","3","3","0","0","1","1","","12808","Please pay attention when watching videos and marking boundaries.<br><br>There are several hidden attention criteria to make sure you watch the videos carefully.<br><br>If you fail these hidden criteria more than the allowed number of times, you may be asked to exit the experiment.","0","","","","","","","","","","","","","","","","","","","","","","","","","","","","","","","",""
"","","","","","survey-multi-choice","6","2.0.0","157127","68","1","2026-06-08 14:06:08","segmentation_norming_randomized_order_maxrun_attention_v4","142.118.156.189","Mozilla/5.0 (Windows NT 10.0; Win64; x64) AppleWebKit/537.36 (KHTML, like Gecko) Chrome/149.0.0.0 Safari/537.36","WebKit","Chrome","149.0.0.0","Windows","10.0","https://uencdihehs.cognition.run/?PROLIFIC_PID=699f870f1185d9ba60a6e928&STUDY_ID=6a230fc25d128c9d1b56061a&STUDY_ID=6a230fc25d128c9d1b56061a&SESSION_ID=6a26cc1c8b7ff817bd9d90a3?PROLIFIC_PID=699f870f1185d9ba60a6e928&SESSION_ID=6a26cc1c8b7ff817bd9d90a3?","en-US,en;q=0.9","699f870f1185d9ba60a6e928","6a230fc25d128c9d1b56061a","6a26cc1c8b7ff817bd9d90a3?","699f870f1185d9ba60a6e928","6a230fc25d128c9d1b56061a","6a26cc1c8b7ff817bd9d90a3?","30","[16,19,14,30,15,13,24,28,25,21,4,20,7,5,22,1,10,17,18,11,3,23,29,9,12,8,26,2,27,6]","[""P16"",""U19"",""P14"",""U30"",""P15"",""P13"",""P24"",""U28"",""P25"",""U21"",""P4"",""U20"",""P7"",""U5"",""P22"",""P1"",""U10"",""P17"",""U18"",""P11"",""U3"",""U23"",""P29"",""U9"",""U12"",""P8"",""U26"",""U2"",""P27"",""U6""]","[""U16"",""P19"",""U14"",""P30"",""U15"",""U13"",""U24"",""P28"",""U25"",""P21"",""U4"",""P20"",""U7"",""P5"",""U22"",""U1"",""P10"",""U17"",""P18"",""U11"",""P3"",""P23"",""U29"",""P9"",""P12"",""U8"",""P26"",""P2"",""U27"",""P6""]","3","3","0","0","1","1","","41387","","{""spacebar_question"":""Between the smallest meaningful events or actions"",""attention_question"":""Press space bar to segment the video""}","comprehension_check","[0,1]","Between the smallest meaningful events or actions","Press space bar to segment the video","true","true","true","","","","","","","","","","","","","","","","","","","","","","","","",""
"","","","","","html-button-response","8","2.0.0","196155","68","1","2026-06-08 14:06:08","segmentation_norming_randomized_order_maxrun_attention_v4","142.118.156.189","Mozilla/5.0 (Windows NT 10.0; Win64; x64) AppleWebKit/537.36 (KHTML, like Gecko) Chrome/149.0.0.0 Safari/537.36","WebKit","Chrome","149.0.0.0","Windows","10.0","https://uencdihehs.cognition.run/?PROLIFIC_PID=699f870f1185d9ba60a6e928&STUDY_ID=6a230fc25d128c9d1b56061a&STUDY_ID=6a230fc25d128c9d1b56061a&SESSION_ID=6a26cc1c8b7ff817bd9d90a3?PROLIFIC_PID=699f870f1185d9ba60a6e928&SESSION_ID=6a26cc1c8b7ff817bd9d90a3?","en-US,en;q=0.9","699f870f1185d9ba60a6e928","6a230fc25d128c9d1b56061a","6a26cc1c8b7ff817bd9d90a3?","699f870f1185d9ba60a6e928","6a230fc25d128c9d1b56061a","6a26cc1c8b7ff817bd9d90a3?","30","[16,19,14,30,15,13,24,28,25,21,4,20,7,5,22,1,10,17,18,11,3,23,29,9,12,8,26,2,27,6]","[""P16"",""U19"",""P14"",""U30"",""P15"",""P13"",""P24"",""U28"",""P25"",""U21"",""P4"",""U20"",""P7"",""U5"",""P22"",""P1"",""U10"",""P17"",""U18"",""P11"",""U3"",""U23"",""P29"",""U9"",""U12"",""P8"",""U26"",""U2"",""P27"",""U6""]","[""U16"",""P19"",""U14"",""P30"",""U15"",""U13"",""U24"",""P28"",""U25"",""P21"",""U4"",""P20"",""U7"",""P5"",""U22"",""U1"",""P10"",""U17"",""P18"",""U11"",""P3"",""P23"",""U29"",""P9"",""P12"",""U8"",""P26"",""P2"",""U27"",""P6""]","3","3","0","0","1","1","","39021","You have learned the instructions for the task! Here is a demo trial.<br><br>Like what you will do in the main experiment,<br><br> you will watch a movie clip and at the same time mark off the activity in the movie into the <strong>smallest meaningful units</strong> that seem natural and meaningful to you.<br><br>Remember, tap the <strong>SPACE BAR</strong> to mark off a boundary between two <strong>smallest meaningful units</strong> of activity.<br><br>A green bar will appear at the bottom of the screen when you press the button.<br><br>","0","","","","","","","","","","","","","","","","","","","","","","","","","","","","","","","",""
"","","","","","video-keyboard-response","9","2.0.0","213200","68","1","2026-06-08 14:06:08","segmentation_norming_randomized_order_maxrun_attention_v4","142.118.156.189","Mozilla/5.0 (Windows NT 10.0; Win64; x64) AppleWebKit/537.36 (KHTML, like Gecko) Chrome/149.0.0.0 Safari/537.36","WebKit","Chrome","149.0.0.0","Windows","10.0","https://uencdihehs.cognition.run/?PROLIFIC_PID=699f870f1185d9ba60a6e928&STUDY_ID=6a230fc25d128c9d1b56061a&STUDY_ID=6a230fc25d128c9d1b56061a&SESSION_ID=6a26cc1c8b7ff817bd9d90a3?PROLIFIC_PID=699f870f1185d9ba60a6e928&SESSION_ID=6a26cc1c8b7ff817bd9d90a3?","en-US,en;q=0.9","699f870f1185d9ba60a6e928","6a230fc25d128c9d1b56061a","6a26cc1c8b7ff817bd9d90a3?","699f870f1185d9ba60a6e928","6a230fc25d128c9d1b56061a","6a26cc1c8b7ff817bd9d90a3?","30","[16,19,14,30,15,13,24,28,25,21,4,20,7,5,22,1,10,17,18,11,3,23,29,9,12,8,26,2,27,6]","[""P16"",""U19"",""P14"",""U30"",""P15"",""P13"",""P24"",""U28"",""P25"",""U21"",""P4"",""U20"",""P7"",""U5"",""P22"",""P1"",""U10"",""P17"",""U18"",""P11"",""U3"",""U23"",""P29"",""U9"",""U12"",""P8"",""U26"",""U2"",""P27"",""U6""]","[""U16"",""P19"",""U14"",""P30"",""U15"",""U13"",""U24"",""P28"",""U25"",""P21"",""U4"",""P20"",""U7"",""P5"",""U22"",""U1"",""P10"",""U17"",""P18"",""U11"",""P3"",""P23"",""U29"",""P9"",""P12"",""U8"",""P26"",""P2"",""U27"",""P6""]","3","3","0","0","1","1","","null","[""library_v1.mp4""]","null","demo_video","","","","","","","1","demo1","library_v1.mp4","library","Demo","[3.378007,6.212358,9.731144,12.669402,15.748383]","5","","","","","","","","","","","","","","","","","",""
"","","","","","call-function","10","2.0.0","213202","68","1","2026-06-08 14:06:08","segmentation_norming_randomized_order_maxrun_attention_v4","142.118.156.189","Mozilla/5.0 (Windows NT 10.0; Win64; x64) AppleWebKit/537.36 (KHTML, like Gecko) Chrome/149.0.0.0 Safari/537.36","WebKit","Chrome","149.0.0.0","Windows","10.0","https://uencdihehs.cognition.run/?PROLIFIC_PID=699f870f1185d9ba60a6e928&STUDY_ID=6a230fc25d128c9d1b56061a&STUDY_ID=6a230fc25d128c9d1b56061a&SESSION_ID=6a26cc1c8b7ff817bd9d90a3?PROLIFIC_PID=699f870f1185d9ba60a6e928&SESSION_ID=6a26cc1c8b7ff817bd9d90a3?","en-US,en;q=0.9","699f870f1185d9ba60a6e928","6a230fc25d128c9d1b56061a","6a26cc1c8b7ff817bd9d90a3?","699f870f1185d9ba60a6e928","6a230fc25d128c9d1b56061a","6a26cc1c8b7ff817bd9d90a3?","30","[16,19,14,30,15,13,24,28,25,21,4,20,7,5,22,1,10,17,18,11,3,23,29,9,12,8,26,2,27,6]","[""P16"",""U19"",""P14"",""U30"",""P15"",""P13"",""P24"",""U28"",""P25"",""U21"",""P4"",""U20"",""P7"",""U5"",""P22"",""P1"",""U10"",""P17"",""U18"",""P11"",""U3"",""U23"",""P29"",""U9"",""U12"",""P8"",""U26"",""U2"",""P27"",""U6""]","[""U16"",""P19"",""U14"",""P30"",""U15"",""U13"",""U24"",""P28"",""U25"",""P21"",""U4"",""P20"",""U7"",""P5"",""U22"",""U1"",""P10"",""U17"",""P18"",""U11"",""P3"",""P23"",""U29"",""P9"",""P12"",""U8"",""P26"",""P2"",""U27"",""P6""]","3","3","0","0","1","1","","","","","","","","","","","","","","","","","","","","","","","","","","","","","","","","","","","",""
"","","","","","html-button-response","11","2.0.0","225545","68","1","2026-06-08 14:06:08","segmentation_norming_randomized_order_maxrun_attention_v4","142.118.156.189","Mozilla/5.0 (Windows NT 10.0; Win64; x64) AppleWebKit/537.36 (KHTML, like Gecko) Chrome/149.0.0.0 Safari/537.36","WebKit","Chrome","149.0.0.0","Windows","10.0","https://uencdihehs.cognition.run/?PROLIFIC_PID=699f870f1185d9ba60a6e928&STUDY_ID=6a230fc25d128c9d1b56061a&STUDY_ID=6a230fc25d128c9d1b56061a&SESSION_ID=6a26cc1c8b7ff817bd9d90a3?PROLIFIC_PID=699f870f1185d9ba60a6e928&SESSION_ID=6a26cc1c8b7ff817bd9d90a3?","en-US,en;q=0.9","699f870f1185d9ba60a6e928","6a230fc25d128c9d1b56061a","6a26cc1c8b7ff817bd9d90a3?","699f870f1185d9ba60a6e928","6a230fc25d128c9d1b56061a","6a26cc1c8b7ff817bd9d90a3?","30","[16,19,14,30,15,13,24,28,25,21,4,20,7,5,22,1,10,17,18,11,3,23,29,9,12,8,26,2,27,6]","[""P16"",""U19"",""P14"",""U30"",""P15"",""P13"",""P24"",""U28"",""P25"",""U21"",""P4"",""U20"",""P7"",""U5"",""P22"",""P1"",""U10"",""P17"",""U18"",""P11"",""U3"",""U23"",""P29"",""U9"",""U12"",""P8"",""U26"",""U2"",""P27"",""U6""]","[""U16"",""P19"",""U14"",""P30"",""U15"",""U13"",""U24"",""P28"",""U25"",""P21"",""U4"",""P20"",""U7"",""P5"",""U22"",""U1"",""P10"",""U17"",""P18"",""U11"",""P3"",""P23"",""U29"",""P9"",""P12"",""U8"",""P26"",""P2"",""U27"",""P6""]","3","3","0","0","1","1","","12341","Usually people tend to press the button more times than you did.<br><br>As a reminder, press the <strong>SPACE BAR</strong> whenever one <strong>smallest meaningful unit</strong> of activity ends and another begins.<br><br>Let's try another demo trial.<br><br>","0","demo_feedback","","","","","","","","","","","","","","","","","","","","","","","","","","","","","","",""
"","","","","","video-keyboard-response","12","2.0.0","261071","68","1","2026-06-08 14:06:08","segmentation_norming_randomized_order_maxrun_attention_v4","142.118.156.189","Mozilla/5.0 (Windows NT 10.0; Win64; x64) AppleWebKit/537.36 (KHTML, like Gecko) Chrome/149.0.0.0 Safari/537.36","WebKit","Chrome","149.0.0.0","Windows","10.0","https://uencdihehs.cognition.run/?PROLIFIC_PID=699f870f1185d9ba60a6e928&STUDY_ID=6a230fc25d128c9d1b56061a&STUDY_ID=6a230fc25d128c9d1b56061a&SESSION_ID=6a26cc1c8b7ff817bd9d90a3?PROLIFIC_PID=699f870f1185d9ba60a6e928&SESSION_ID=6a26cc1c8b7ff817bd9d90a3?","en-US,en;q=0.9","699f870f1185d9ba60a6e928","6a230fc25d128c9d1b56061a","6a26cc1c8b7ff817bd9d90a3?","699f870f1185d9ba60a6e928","6a230fc25d128c9d1b56061a","6a26cc1c8b7ff817bd9d90a3?","30","[16,19,14,30,15,13,24,28,25,21,4,20,7,5,22,1,10,17,18,11,3,23,29,9,12,8,26,2,27,6]","[""P16"",""U19"",""P14"",""U30"",""P15"",""P13"",""P24"",""U28"",""P25"",""U21"",""P4"",""U20"",""P7"",""U5"",""P22"",""P1"",""U10"",""P17"",""U18"",""P11"",""U3"",""U23"",""P29"",""U9"",""U12"",""P8"",""U26"",""U2"",""P27"",""U6""]","[""U16"",""P19"",""U14"",""P30"",""U15"",""U13"",""U24"",""P28"",""U25"",""P21"",""U4"",""P20"",""U7"",""P5"",""U22"",""U1"",""P10"",""U17"",""P18"",""U11"",""P3"",""P23"",""U29"",""P9"",""P12"",""U8"",""P26"",""P2"",""U27"",""P6""]","3","3","0","0","1","1","","null","[""garden_v1.mp4""]","null","demo_video","","","","","","","2","demo2","garden_v1.mp4","garden","Demo","[2.376217,3.87175,4.991565,6.194298,8.372101,10.124492,11.809063,13.191603,15.04344,16.622154,18.671297,20.617665,22.529371,24.784433,28.039446,29.870764,31.44654,32.969911,34.657397]","19","","","","","","","","","","","","","","","","","",""
"","","","","","call-function","13","2.0.0","261073","68","1","2026-06-08 14:06:08","segmentation_norming_randomized_order_maxrun_attention_v4","142.118.156.189","Mozilla/5.0 (Windows NT 10.0; Win64; x64) AppleWebKit/537.36 (KHTML, like Gecko) Chrome/149.0.0.0 Safari/537.36","WebKit","Chrome","149.0.0.0","Windows","10.0","https://uencdihehs.cognition.run/?PROLIFIC_PID=699f870f1185d9ba60a6e928&STUDY_ID=6a230fc25d128c9d1b56061a&STUDY_ID=6a230fc25d128c9d1b56061a&SESSION_ID=6a26cc1c8b7ff817bd9d90a3?PROLIFIC_PID=699f870f1185d9ba60a6e928&SESSION_ID=6a26cc1c8b7ff817bd9d90a3?","en-US,en;q=0.9","699f870f1185d9ba60a6e928","6a230fc25d128c9d1b56061a","6a26cc1c8b7ff817bd9d90a3?","699f870f1185d9ba60a6e928","6a230fc25d128c9d1b56061a","6a26cc1c8b7ff817bd9d90a3?","30","[16,19,14,30,15,13,24,28,25,21,4,20,7,5,22,1,10,17,18,11,3,23,29,9,12,8,26,2,27,6]","[""P16"",""U19"",""P14"",""U30"",""P15"",""P13"",""P24"",""U28"",""P25"",""U21"",""P4"",""U20"",""P7"",""U5"",""P22"",""P1"",""U10"",""P17"",""U18"",""P11"",""U3"",""U23"",""P29"",""U9"",""U12"",""P8"",""U26"",""U2"",""P27"",""U6""]","[""U16"",""P19"",""U14"",""P30"",""U15"",""U13"",""U24"",""P28"",""U25"",""P21"",""U4"",""P20"",""U7"",""P5"",""U22"",""U1"",""P10"",""U17"",""P18"",""U11"",""P3"",""P23"",""U29"",""P9"",""P12"",""U8"",""P26"",""P2"",""U27"",""P6""]","3","3","0","0","1","1","","","","","","","","","","","","","","","","","","","","","","","","","","","","","","","","","","","",""
"","","","","","html-button-response","14","2.0.0","281952","68","1","2026-06-08 14:06:08","segmentation_norming_randomized_order_maxrun_attention_v4","142.118.156.189","Mozilla/5.0 (Windows NT 10.0; Win64; x64) AppleWebKit/537.36 (KHTML, like Gecko) Chrome/149.0.0.0 Safari/537.36","WebKit","Chrome","149.0.0.0","Windows","10.0","https://uencdihehs.cognition.run/?PROLIFIC_PID=699f870f1185d9ba60a6e928&STUDY_ID=6a230fc25d128c9d1b56061a&STUDY_ID=6a230fc25d128c9d1b56061a&SESSION_ID=6a26cc1c8b7ff817bd9d90a3?PROLIFIC_PID=699f870f1185d9ba60a6e928&SESSION_ID=6a26cc1c8b7ff817bd9d90a3?","en-US,en;q=0.9","699f870f1185d9ba60a6e928","6a230fc25d128c9d1b56061a","6a26cc1c8b7ff817bd9d90a3?","699f870f1185d9ba60a6e928","6a230fc25d128c9d1b56061a","6a26cc1c8b7ff817bd9d90a3?","30","[16,19,14,30,15,13,24,28,25,21,4,20,7,5,22,1,10,17,18,11,3,23,29,9,12,8,26,2,27,6]","[""P16"",""U19"",""P14"",""U30"",""P15"",""P13"",""P24"",""U28"",""P25"",""U21"",""P4"",""U20"",""P7"",""U5"",""P22"",""P1"",""U10"",""P17"",""U18"",""P11"",""U3"",""U23"",""P29"",""U9"",""U12"",""P8"",""U26"",""U2"",""P27"",""U6""]","[""U16"",""P19"",""U14"",""P30"",""U15"",""U13"",""U24"",""P28"",""U25"",""P21"",""U4"",""P20"",""U7"",""P5"",""U22"",""U1"",""P10"",""U17"",""P18"",""U11"",""P3"",""P23"",""U29"",""P9"",""P12"",""U8"",""P26"",""P2"",""U27"",""P6""]","3","3","0","0","1","1","","20877","Great! Hopefully you got an idea of what a meaningful unit is.<br><br>Remember that there is no right or wrong answer.<br><br>We just want to know which parts of the activity seem natural and meaningful to you.<br><br>Now the main experiment starts.<br><br>For each clip, while watching, remember to press the SPACE BAR whenever one <strong>smallest meaningful unit</strong> of activity ends and another begins.<br><br>","0","demo_feedback","","","","","","","","","","","","","","","","","","","","","","","","","","","","","","",""
"true","false","[]","[]","[]","preload","15","2.0.0","295827","68","1","2026-06-08 14:06:08","segmentation_norming_randomized_order_maxrun_attention_v4","142.118.156.189","Mozilla/5.0 (Windows NT 10.0; Win64; x64) AppleWebKit/537.36 (KHTML, like Gecko) Chrome/149.0.0.0 Safari/537.36","WebKit","Chrome","149.0.0.0","Windows","10.0","https://uencdihehs.cognition.run/?PROLIFIC_PID=699f870f1185d9ba60a6e928&STUDY_ID=6a230fc25d128c9d1b56061a&STUDY_ID=6a230fc25d128c9d1b56061a&SESSION_ID=6a26cc1c8b7ff817bd9d90a3?PROLIFIC_PID=699f870f1185d9ba60a6e928&SESSION_ID=6a26cc1c8b7ff817bd9d90a3?","en-US,en;q=0.9","699f870f1185d9ba60a6e928","6a230fc25d128c9d1b56061a","6a26cc1c8b7ff817bd9d90a3?","699f870f1185d9ba60a6e928","6a230fc25d128c9d1b56061a","6a26cc1c8b7ff817bd9d90a3?","30","[16,19,14,30,15,13,24,28,25,21,4,20,7,5,22,1,10,17,18,11,3,23,29,9,12,8,26,2,27,6]","[""P16"",""U19"",""P14"",""U30"",""P15"",""P13"",""P24"",""U28"",""P25"",""U21"",""P4"",""U20"",""P7"",""U5"",""P22"",""P1"",""U10"",""P17"",""U18"",""P11"",""U3"",""U23"",""P29"",""U9"",""U12"",""P8"",""U26"",""U2"",""P27"",""U6""]","[""U16"",""P19"",""U14"",""P30"",""U15"",""U13"",""U24"",""P28"",""U25"",""P21"",""U4"",""P20"",""U7"",""P5"",""U22"",""U1"",""P10"",""U17"",""P18"",""U11"",""P3"",""P23"",""U29"",""P9"",""P12"",""U8"",""P26"",""P2"",""U27"",""P6""]","3","3","0","0","1","1","","","","","","","","","","","","","","","","","","","","","","","","","","","","","","","","","","","",""
"","","","","","video-keyboard-response","16","2.0.0","326445","68","1","2026-06-08 14:06:08","segmentation_norming_randomized_order_maxrun_attention_v4","142.118.156.189","Mozilla/5.0 (Windows NT 10.0; Win64; x64) AppleWebKit/537.36 (KHTML, like Gecko) Chrome/149.0.0.0 Safari/537.36","WebKit","Chrome","149.0.0.0","Windows","10.0","https://uencdihehs.cognition.run/?PROLIFIC_PID=699f870f1185d9ba60a6e928&STUDY_ID=6a230fc25d128c9d1b56061a&STUDY_ID=6a230fc25d128c9d1b56061a&SESSION_ID=6a26cc1c8b7ff817bd9d90a3?PROLIFIC_PID=699f870f1185d9ba60a6e928&SESSION_ID=6a26cc1c8b7ff817bd9d90a3?","en-US,en;q=0.9","699f870f1185d9ba60a6e928","6a230fc25d128c9d1b56061a","6a26cc1c8b7ff817bd9d90a3?","699f870f1185d9ba60a6e928","6a230fc25d128c9d1b56061a","6a26cc1c8b7ff817bd9d90a3?","30","[16,19,14,30,15,13,24,28,25,21,4,20,7,5,22,1,10,17,18,11,3,23,29,9,12,8,26,2,27,6]","[""P16"",""U19"",""P14"",""U30"",""P15"",""P13"",""P24"",""U28"",""P25"",""U21"",""P4"",""U20"",""P7"",""U5"",""P22"",""P1"",""U10"",""P17"",""U18"",""P11"",""U3"",""U23"",""P29"",""U9"",""U12"",""P8"",""U26"",""U2"",""P27"",""U6""]","[""U16"",""P19"",""U14"",""P30"",""U15"",""U13"",""U24"",""P28"",""U25"",""P21"",""U4"",""P20"",""U7"",""P5"",""U22"",""U1"",""P10"",""U17"",""P18"",""U11"",""P3"",""P23"",""U29"",""P9"",""P12"",""U8"",""P26"",""P2"",""U27"",""P6""]","3","3","0","0","1","1","","null","[""mouse_v1.mp4""]","null","segmentation_video","","","","","","","","","mouse_v1.mp4","mouse","Predictable","[1.302752,2.908234,4.150265,6.705085,8.475631,10.462915,12.16298,14.439289,16.911042,18.917936,21.345866,23.828052,25.230386,27.72733]","14","","P16","16","1","1","1.2420309999999999","false","false","false","","false","0","0","false","false","false","false",""
"","","","","","survey-multi-choice","19","2.0.0","341974","68","1","2026-06-08 14:06:08","segmentation_norming_randomized_order_maxrun_attention_v4","142.118.156.189","Mozilla/5.0 (Windows NT 10.0; Win64; x64) AppleWebKit/537.36 (KHTML, like Gecko) Chrome/149.0.0.0 Safari/537.36","WebKit","Chrome","149.0.0.0","Windows","10.0","https://uencdihehs.cognition.run/?PROLIFIC_PID=699f870f1185d9ba60a6e928&STUDY_ID=6a230fc25d128c9d1b56061a&STUDY_ID=6a230fc25d128c9d1b56061a&SESSION_ID=6a26cc1c8b7ff817bd9d90a3?PROLIFIC_PID=699f870f1185d9ba60a6e928&SESSION_ID=6a26cc1c8b7ff817bd9d90a3?","en-US,en;q=0.9","699f870f1185d9ba60a6e928","6a230fc25d128c9d1b56061a","6a26cc1c8b7ff817bd9d90a3?","699f870f1185d9ba60a6e928","6a230fc25d128c9d1b56061a","6a26cc1c8b7ff817bd9d90a3?","30","[16,19,14,30,15,13,24,28,25,21,4,20,7,5,22,1,10,17,18,11,3,23,29,9,12,8,26,2,27,6]","[""P16"",""U19"",""P14"",""U30"",""P15"",""P13"",""P24"",""U28"",""P25"",""U21"",""P4"",""U20"",""P7"",""U5"",""P22"",""P1"",""U10"",""P17"",""U18"",""P11"",""U3"",""U23"",""P29"",""U9"",""U12"",""P8"",""U26"",""U2"",""P27"",""U6""]","[""U16"",""P19"",""U14"",""P30"",""U15"",""U13"",""U24"",""P28"",""U25"",""P21"",""U4"",""P20"",""U7"",""P5"",""U22"",""U1"",""P10"",""U17"",""P18"",""U11"",""P3"",""P23"",""U29"",""P9"",""P12"",""U8"",""P26"",""P2"",""U27"",""P6""]","3","3","0","0","1","1","","15523","","{""confidence_rating"":""Very confident""}","confidence_question","[0]","","","","","","","","","mouse","Predictable","","","","P16","16","1","1","","","","","","","","","","","","","Very confident"
"","","","","","video-keyboard-response","20","2.0.0","377683","68","1","2026-06-08 14:06:08","segmentation_norming_randomized_order_maxrun_attention_v4","142.118.156.189","Mozilla/5.0 (Windows NT 10.0; Win64; x64) AppleWebKit/537.36 (KHTML, like Gecko) Chrome/149.0.0.0 Safari/537.36","WebKit","Chrome","149.0.0.0","Windows","10.0","https://uencdihehs.cognition.run/?PROLIFIC_PID=699f870f1185d9ba60a6e928&STUDY_ID=6a230fc25d128c9d1b56061a&STUDY_ID=6a230fc25d128c9d1b56061a&SESSION_ID=6a26cc1c8b7ff817bd9d90a3?PROLIFIC_PID=699f870f1185d9ba60a6e928&SESSION_ID=6a26cc1c8b7ff817bd9d90a3?","en-US,en;q=0.9","699f870f1185d9ba60a6e928","6a230fc25d128c9d1b56061a","6a26cc1c8b7ff817bd9d90a3?","699f870f1185d9ba60a6e928","6a230fc25d128c9d1b56061a","6a26cc1c8b7ff817bd9d90a3?","30","[16,19,14,30,15,13,24,28,25,21,4,20,7,5,22,1,10,17,18,11,3,23,29,9,12,8,26,2,27,6]","[""P16"",""U19"",""P14"",""U30"",""P15"",""P13"",""P24"",""U28"",""P25"",""U21"",""P4"",""U20"",""P7"",""U5"",""P22"",""P1"",""U10"",""P17"",""U18"",""P11"",""U3"",""U23"",""P29"",""U9"",""U12"",""P8"",""U26"",""U2"",""P27"",""U6""]","[""U16"",""P19"",""U14"",""P30"",""U15"",""U13"",""U24"",""P28"",""U25"",""P21"",""U4"",""P20"",""U7"",""P5"",""U22"",""U1"",""P10"",""U17"",""P18"",""U11"",""P3"",""P23"",""U29"",""P9"",""P12"",""U8"",""P26"",""P2"",""U27"",""P6""]","3","3","0","0","1","1","","null","[""party_v2.mp4""]","null","segmentation_video","","","","","","","","","party_v2.mp4","party","Unpredictable","[1.136756,2.660713,4.492266,6.103113,8.970261,13.176404,14.385475,17.176857,20.223557,21.795537,26.078733,30.247271,32.226702,34.279081]","14","","U19","19","1","2","1.2090709999999998","false","false","false","","false","0","0","false","false","false","false",""
"","","","","","survey-multi-choice","23","2.0.0","395731","68","1","2026-06-08 14:06:08","segmentation_norming_randomized_order_maxrun_attention_v4","142.118.156.189","Mozilla/5.0 (Windows NT 10.0; Win64; x64) AppleWebKit/537.36 (KHTML, like Gecko) Chrome/149.0.0.0 Safari/537.36","WebKit","Chrome","149.0.0.0","Windows","10.0","https://uencdihehs.cognition.run/?PROLIFIC_PID=699f870f1185d9ba60a6e928&STUDY_ID=6a230fc25d128c9d1b56061a&STUDY_ID=6a230fc25d128c9d1b56061a&SESSION_ID=6a26cc1c8b7ff817bd9d90a3?PROLIFIC_PID=699f870f1185d9ba60a6e928&SESSION_ID=6a26cc1c8b7ff817bd9d90a3?","en-US,en;q=0.9","699f870f1185d9ba60a6e928","6a230fc25d128c9d1b56061a","6a26cc1c8b7ff817bd9d90a3?","699f870f1185d9ba60a6e928","6a230fc25d128c9d1b56061a","6a26cc1c8b7ff817bd9d90a3?","30","[16,19,14,30,15,13,24,28,25,21,4,20,7,5,22,1,10,17,18,11,3,23,29,9,12,8,26,2,27,6]","[""P16"",""U19"",""P14"",""U30"",""P15"",""P13"",""P24"",""U28"",""P25"",""U21"",""P4"",""U20"",""P7"",""U5"",""P22"",""P1"",""U10"",""P17"",""U18"",""P11"",""U3"",""U23"",""P29"",""U9"",""U12"",""P8"",""U26"",""U2"",""P27"",""U6""]","[""U16"",""P19"",""U14"",""P30"",""U15"",""U13"",""U24"",""P28"",""U25"",""P21"",""U4"",""P20"",""U7"",""P5"",""U22"",""U1"",""P10"",""U17"",""P18"",""U11"",""P3"",""P23"",""U29"",""P9"",""P12"",""U8"",""P26"",""P2"",""U27"",""P6""]","3","3","0","0","1","1","","18044","","{""confidence_rating"":""Very confident""}","confidence_question","[0]","","","","","","","","","party","Unpredictable","","","","U19","19","1","2","","","","","","","","","","","","","Very confident"
"","","","","","video-keyboard-response","24","2.0.0","425775","68","1","2026-06-08 14:06:08","segmentation_norming_randomized_order_maxrun_attention_v4","142.118.156.189","Mozilla/5.0 (Windows NT 10.0; Win64; x64) AppleWebKit/537.36 (KHTML, like Gecko) Chrome/149.0.0.0 Safari/537.36","WebKit","Chrome","149.0.0.0","Windows","10.0","https://uencdihehs.cognition.run/?PROLIFIC_PID=699f870f1185d9ba60a6e928&STUDY_ID=6a230fc25d128c9d1b56061a&STUDY_ID=6a230fc25d128c9d1b56061a&SESSION_ID=6a26cc1c8b7ff817bd9d90a3?PROLIFIC_PID=699f870f1185d9ba60a6e928&SESSION_ID=6a26cc1c8b7ff817bd9d90a3?","en-US,en;q=0.9","699f870f1185d9ba60a6e928","6a230fc25d128c9d1b56061a","6a26cc1c8b7ff817bd9d90a3?","699f870f1185d9ba60a6e928","6a230fc25d128c9d1b56061a","6a26cc1c8b7ff817bd9d90a3?","30","[16,19,14,30,15,13,24,28,25,21,4,20,7,5,22,1,10,17,18,11,3,23,29,9,12,8,26,2,27,6]","[""P16"",""U19"",""P14"",""U30"",""P15"",""P13"",""P24"",""U28"",""P25"",""U21"",""P4"",""U20"",""P7"",""U5"",""P22"",""P1"",""U10"",""P17"",""U18"",""P11"",""U3"",""U23"",""P29"",""U9"",""U12"",""P8"",""U26"",""U2"",""P27"",""U6""]","[""U16"",""P19"",""U14"",""P30"",""U15"",""U13"",""U24"",""P28"",""U25"",""P21"",""U4"",""P20"",""U7"",""P5"",""U22"",""U1"",""P10"",""U17"",""P18"",""U11"",""P3"",""P23"",""U29"",""P9"",""P12"",""U8"",""P26"",""P2"",""U27"",""P6""]","3","3","0","0","1","1","","null","[""lamp_v1.mp4""]","null","segmentation_video","","","","","","","","","lamp_v1.mp4","lamp","Predictable","[1.436157,5.585246,8.18641,11.124053,13.986093,17.626464,21.140327,23.67729,25.547748,28.490173]","10","","P14","14","1","3","1.8704579999999993","false","false","false","","false","0","0","false","false","false","false",""
"","","","","","survey-multi-choice","27","2.0.0","429307","68","1","2026-06-08 14:06:08","segmentation_norming_randomized_order_maxrun_attention_v4","142.118.156.189","Mozilla/5.0 (Windows NT 10.0; Win64; x64) AppleWebKit/537.36 (KHTML, like Gecko) Chrome/149.0.0.0 Safari/537.36","WebKit","Chrome","149.0.0.0","Windows","10.0","https://uencdihehs.cognition.run/?PROLIFIC_PID=699f870f1185d9ba60a6e928&STUDY_ID=6a230fc25d128c9d1b56061a&STUDY_ID=6a230fc25d128c9d1b56061a&SESSION_ID=6a26cc1c8b7ff817bd9d90a3?PROLIFIC_PID=699f870f1185d9ba60a6e928&SESSION_ID=6a26cc1c8b7ff817bd9d90a3?","en-US,en;q=0.9","699f870f1185d9ba60a6e928","6a230fc25d128c9d1b56061a","6a26cc1c8b7ff817bd9d90a3?","699f870f1185d9ba60a6e928","6a230fc25d128c9d1b56061a","6a26cc1c8b7ff817bd9d90a3?","30","[16,19,14,30,15,13,24,28,25,21,4,20,7,5,22,1,10,17,18,11,3,23,29,9,12,8,26,2,27,6]","[""P16"",""U19"",""P14"",""U30"",""P15"",""P13"",""P24"",""U28"",""P25"",""U21"",""P4"",""U20"",""P7"",""U5"",""P22"",""P1"",""U10"",""P17"",""U18"",""P11"",""U3"",""U23"",""P29"",""U9"",""U12"",""P8"",""U26"",""U2"",""P27"",""U6""]","[""U16"",""P19"",""U14"",""P30"",""U15"",""U13"",""U24"",""P28"",""U25"",""P21"",""U4"",""P20"",""U7"",""P5"",""U22"",""U1"",""P10"",""U17"",""P18"",""U11"",""P3"",""P23"",""U29"",""P9"",""P12"",""U8"",""P26"",""P2"",""U27"",""P6""]","3","3","0","0","1","1","","3528","","{""confidence_rating"":""Very confident""}","confidence_question","[0]","","","","","","","","","lamp","Predictable","","","","P14","14","1","3","","","","","","","","","","","","","Very confident"
"","","","","","video-keyboard-response","28","2.0.0","465997","68","1","2026-06-08 14:06:08","segmentation_norming_randomized_order_maxrun_attention_v4","142.118.156.189","Mozilla/5.0 (Windows NT 10.0; Win64; x64) AppleWebKit/537.36 (KHTML, like Gecko) Chrome/149.0.0.0 Safari/537.36","WebKit","Chrome","149.0.0.0","Windows","10.0","https://uencdihehs.cognition.run/?PROLIFIC_PID=699f870f1185d9ba60a6e928&STUDY_ID=6a230fc25d128c9d1b56061a&STUDY_ID=6a230fc25d128c9d1b56061a&SESSION_ID=6a26cc1c8b7ff817bd9d90a3?PROLIFIC_PID=699f870f1185d9ba60a6e928&SESSION_ID=6a26cc1c8b7ff817bd9d90a3?","en-US,en;q=0.9","699f870f1185d9ba60a6e928","6a230fc25d128c9d1b56061a","6a26cc1c8b7ff817bd9d90a3?","699f870f1185d9ba60a6e928","6a230fc25d128c9d1b56061a","6a26cc1c8b7ff817bd9d90a3?","30","[16,19,14,30,15,13,24,28,25,21,4,20,7,5,22,1,10,17,18,11,3,23,29,9,12,8,26,2,27,6]","[""P16"",""U19"",""P14"",""U30"",""P15"",""P13"",""P24"",""U28"",""P25"",""U21"",""P4"",""U20"",""P7"",""U5"",""P22"",""P1"",""U10"",""P17"",""U18"",""P11"",""U3"",""U23"",""P29"",""U9"",""U12"",""P8"",""U26"",""U2"",""P27"",""U6""]","[""U16"",""P19"",""U14"",""P30"",""U15"",""U13"",""U24"",""P28"",""U25"",""P21"",""U4"",""P20"",""U7"",""P5"",""U22"",""U1"",""P10"",""U17"",""P18"",""U11"",""P3"",""P23"",""U29"",""P9"",""P12"",""U8"",""P26"",""P2"",""U27"",""P6""]","3","3","0","0","1","1","","null","[""whiteboard_v2.mp4""]","null","segmentation_video","","","","","","","","","whiteboard_v2.mp4","whiteboard","Unpredictable","[1.279246,2.138974,3.058407,3.730217,4.530067,6.187963,7.066661,8.522854,11.003138,13.427554,15.582769,17.925177,21.067352,24.21157,26.17812,28.702463,30.392805,31.657808,33.411663,35.259242]","20","","U30","30","1","4","0.6718100000000002","false","false","false","","false","0","0","false","false","false","false",""
"","","","","","survey-multi-choice","31","2.0.0","470813","68","1","2026-06-08 14:06:08","segmentation_norming_randomized_order_maxrun_attention_v4","142.118.156.189","Mozilla/5.0 (Windows NT 10.0; Win64; x64) AppleWebKit/537.36 (KHTML, like Gecko) Chrome/149.0.0.0 Safari/537.36","WebKit","Chrome","149.0.0.0","Windows","10.0","https://uencdihehs.cognition.run/?PROLIFIC_PID=699f870f1185d9ba60a6e928&STUDY_ID=6a230fc25d128c9d1b56061a&STUDY_ID=6a230fc25d128c9d1b56061a&SESSION_ID=6a26cc1c8b7ff817bd9d90a3?PROLIFIC_PID=699f870f1185d9ba60a6e928&SESSION_ID=6a26cc1c8b7ff817bd9d90a3?","en-US,en;q=0.9","699f870f1185d9ba60a6e928","6a230fc25d128c9d1b56061a","6a26cc1c8b7ff817bd9d90a3?","699f870f1185d9ba60a6e928","6a230fc25d128c9d1b56061a","6a26cc1c8b7ff817bd9d90a3?","30","[16,19,14,30,15,13,24,28,25,21,4,20,7,5,22,1,10,17,18,11,3,23,29,9,12,8,26,2,27,6]","[""P16"",""U19"",""P14"",""U30"",""P15"",""P13"",""P24"",""U28"",""P25"",""U21"",""P4"",""U20"",""P7"",""U5"",""P22"",""P1"",""U10"",""P17"",""U18"",""P11"",""U3"",""U23"",""P29"",""U9"",""U12"",""P8"",""U26"",""U2"",""P27"",""U6""]","[""U16"",""P19"",""U14"",""P30"",""U15"",""U13"",""U24"",""P28"",""U25"",""P21"",""U4"",""P20"",""U7"",""P5"",""U22"",""U1"",""P10"",""U17"",""P18"",""U11"",""P3"",""P23"",""U29"",""P9"",""P12"",""U8"",""P26"",""P2"",""U27"",""P6""]","3","3","0","0","1","1","","4811","","{""confidence_rating"":""Very confident""}","confidence_question","[0]","","","","","","","","","whiteboard","Unpredictable","","","","U30","30","1","4","","","","","","","","","","","","","Very confident"
"","","","","","video-keyboard-response","32","2.0.0","501799","68","1","2026-06-08 14:06:08","segmentation_norming_randomized_order_maxrun_attention_v4","142.118.156.189","Mozilla/5.0 (Windows NT 10.0; Win64; x64) AppleWebKit/537.36 (KHTML, like Gecko) Chrome/149.0.0.0 Safari/537.36","WebKit","Chrome","149.0.0.0","Windows","10.0","https://uencdihehs.cognition.run/?PROLIFIC_PID=699f870f1185d9ba60a6e928&STUDY_ID=6a230fc25d128c9d1b56061a&STUDY_ID=6a230fc25d128c9d1b56061a&SESSION_ID=6a26cc1c8b7ff817bd9d90a3?PROLIFIC_PID=699f870f1185d9ba60a6e928&SESSION_ID=6a26cc1c8b7ff817bd9d90a3?","en-US,en;q=0.9","699f870f1185d9ba60a6e928","6a230fc25d128c9d1b56061a","6a26cc1c8b7ff817bd9d90a3?","699f870f1185d9ba60a6e928","6a230fc25d128c9d1b56061a","6a26cc1c8b7ff817bd9d90a3?","30","[16,19,14,30,15,13,24,28,25,21,4,20,7,5,22,1,10,17,18,11,3,23,29,9,12,8,26,2,27,6]","[""P16"",""U19"",""P14"",""U30"",""P15"",""P13"",""P24"",""U28"",""P25"",""U21"",""P4"",""U20"",""P7"",""U5"",""P22"",""P1"",""U10"",""P17"",""U18"",""P11"",""U3"",""U23"",""P29"",""U9"",""U12"",""P8"",""U26"",""U2"",""P27"",""U6""]","[""U16"",""P19"",""U14"",""P30"",""U15"",""U13"",""U24"",""P28"",""U25"",""P21"",""U4"",""P20"",""U7"",""P5"",""U22"",""U1"",""P10"",""U17"",""P18"",""U11"",""P3"",""P23"",""U29"",""P9"",""P12"",""U8"",""P26"",""P2"",""U27"",""P6""]","3","3","0","0","1","1","","null","[""laundry_v1.mp4""]","null","segmentation_video","","","","","","","","","laundry_v1.mp4","laundry","Predictable","[1.215442,4.104838,6.933245,10.050256,11.742712,14.919079,18.090265,19.063315,22.073736,25.04639,27.224611,29.172298]","12","","P15","15","1","5","0.9730500000000006","false","false","false","","false","0","0","false","false","false","false",""
"","","","","","survey-multi-choice","35","2.0.0","504954","68","1","2026-06-08 14:06:08","segmentation_norming_randomized_order_maxrun_attention_v4","142.118.156.189","Mozilla/5.0 (Windows NT 10.0; Win64; x64) AppleWebKit/537.36 (KHTML, like Gecko) Chrome/149.0.0.0 Safari/537.36","WebKit","Chrome","149.0.0.0","Windows","10.0","https://uencdihehs.cognition.run/?PROLIFIC_PID=699f870f1185d9ba60a6e928&STUDY_ID=6a230fc25d128c9d1b56061a&STUDY_ID=6a230fc25d128c9d1b56061a&SESSION_ID=6a26cc1c8b7ff817bd9d90a3?PROLIFIC_PID=699f870f1185d9ba60a6e928&SESSION_ID=6a26cc1c8b7ff817bd9d90a3?","en-US,en;q=0.9","699f870f1185d9ba60a6e928","6a230fc25d128c9d1b56061a","6a26cc1c8b7ff817bd9d90a3?","699f870f1185d9ba60a6e928","6a230fc25d128c9d1b56061a","6a26cc1c8b7ff817bd9d90a3?","30","[16,19,14,30,15,13,24,28,25,21,4,20,7,5,22,1,10,17,18,11,3,23,29,9,12,8,26,2,27,6]","[""P16"",""U19"",""P14"",""U30"",""P15"",""P13"",""P24"",""U28"",""P25"",""U21"",""P4"",""U20"",""P7"",""U5"",""P22"",""P1"",""U10"",""P17"",""U18"",""P11"",""U3"",""U23"",""P29"",""U9"",""U12"",""P8"",""U26"",""U2"",""P27"",""U6""]","[""U16"",""P19"",""U14"",""P30"",""U15"",""U13"",""U24"",""P28"",""U25"",""P21"",""U4"",""P20"",""U7"",""P5"",""U22"",""U1"",""P10"",""U17"",""P18"",""U11"",""P3"",""P23"",""U29"",""P9"",""P12"",""U8"",""P26"",""P2"",""U27"",""P6""]","3","3","0","0","1","1","","3153","","{""confidence_rating"":""Very confident""}","confidence_question","[0]","","","","","","","","","laundry","Predictable","","","","P15","15","1","5","","","","","","","","","","","","","Very confident"
"","","","","","video-keyboard-response","36","2.0.0","534400","68","1","2026-06-08 14:06:08","segmentation_norming_randomized_order_maxrun_attention_v4","142.118.156.189","Mozilla/5.0 (Windows NT 10.0; Win64; x64) AppleWebKit/537.36 (KHTML, like Gecko) Chrome/149.0.0.0 Safari/537.36","WebKit","Chrome","149.0.0.0","Windows","10.0","https://uencdihehs.cognition.run/?PROLIFIC_PID=699f870f1185d9ba60a6e928&STUDY_ID=6a230fc25d128c9d1b56061a&STUDY_ID=6a230fc25d128c9d1b56061a&SESSION_ID=6a26cc1c8b7ff817bd9d90a3?PROLIFIC_PID=699f870f1185d9ba60a6e928&SESSION_ID=6a26cc1c8b7ff817bd9d90a3?","en-US,en;q=0.9","699f870f1185d9ba60a6e928","6a230fc25d128c9d1b56061a","6a26cc1c8b7ff817bd9d90a3?","699f870f1185d9ba60a6e928","6a230fc25d128c9d1b56061a","6a26cc1c8b7ff817bd9d90a3?","30","[16,19,14,30,15,13,24,28,25,21,4,20,7,5,22,1,10,17,18,11,3,23,29,9,12,8,26,2,27,6]","[""P16"",""U19"",""P14"",""U30"",""P15"",""P13"",""P24"",""U28"",""P25"",""U21"",""P4"",""U20"",""P7"",""U5"",""P22"",""P1"",""U10"",""P17"",""U18"",""P11"",""U3"",""U23"",""P29"",""U9"",""U12"",""P8"",""U26"",""U2"",""P27"",""U6""]","[""U16"",""P19"",""U14"",""P30"",""U15"",""U13"",""U24"",""P28"",""U25"",""P21"",""U4"",""P20"",""U7"",""P5"",""U22"",""U1"",""P10"",""U17"",""P18"",""U11"",""P3"",""P23"",""U29"",""P9"",""P12"",""U8"",""P26"",""P2"",""U27"",""P6""]","3","3","0","0","1","1","","null","[""gym_v1.mp4""]","null","segmentation_video","","","","","","","","","gym_v1.mp4","gym","Predictable","[2.299977,3.955108,5.597326,7.498848,9.769448,12.231346,14.456097,16.071223,17.629562,19.29889,21.221896,23.282799,25.322719,26.898738,29.053289]","15","","P13","13","1","6","1.5583390000000001","false","false","false","","false","0","0","false","false","false","false",""
"","","","","","survey-multi-choice","39","2.0.0","537887","68","1","2026-06-08 14:06:08","segmentation_norming_randomized_order_maxrun_attention_v4","142.118.156.189","Mozilla/5.0 (Windows NT 10.0; Win64; x64) AppleWebKit/537.36 (KHTML, like Gecko) Chrome/149.0.0.0 Safari/537.36","WebKit","Chrome","149.0.0.0","Windows","10.0","https://uencdihehs.cognition.run/?PROLIFIC_PID=699f870f1185d9ba60a6e928&STUDY_ID=6a230fc25d128c9d1b56061a&STUDY_ID=6a230fc25d128c9d1b56061a&SESSION_ID=6a26cc1c8b7ff817bd9d90a3?PROLIFIC_PID=699f870f1185d9ba60a6e928&SESSION_ID=6a26cc1c8b7ff817bd9d90a3?","en-US,en;q=0.9","699f870f1185d9ba60a6e928","6a230fc25d128c9d1b56061a","6a26cc1c8b7ff817bd9d90a3?","699f870f1185d9ba60a6e928","6a230fc25d128c9d1b56061a","6a26cc1c8b7ff817bd9d90a3?","30","[16,19,14,30,15,13,24,28,25,21,4,20,7,5,22,1,10,17,18,11,3,23,29,9,12,8,26,2,27,6]","[""P16"",""U19"",""P14"",""U30"",""P15"",""P13"",""P24"",""U28"",""P25"",""U21"",""P4"",""U20"",""P7"",""U5"",""P22"",""P1"",""U10"",""P17"",""U18"",""P11"",""U3"",""U23"",""P29"",""U9"",""U12"",""P8"",""U26"",""U2"",""P27"",""U6""]","[""U16"",""P19"",""U14"",""P30"",""U15"",""U13"",""U24"",""P28"",""U25"",""P21"",""U4"",""P20"",""U7"",""P5"",""U22"",""U1"",""P10"",""U17"",""P18"",""U11"",""P3"",""P23"",""U29"",""P9"",""P12"",""U8"",""P26"",""P2"",""U27"",""P6""]","3","3","0","0","1","1","","3483","","{""confidence_rating"":""Very confident""}","confidence_question","[0]","","","","","","","","","gym","Predictable","","","","P13","13","1","6","","","","","","","","","","","","","Very confident"
"","","","","","video-keyboard-response","40","2.0.0","562165","68","1","2026-06-08 14:06:08","segmentation_norming_randomized_order_maxrun_attention_v4","142.118.156.189","Mozilla/5.0 (Windows NT 10.0; Win64; x64) AppleWebKit/537.36 (KHTML, like Gecko) Chrome/149.0.0.0 Safari/537.36","WebKit","Chrome","149.0.0.0","Windows","10.0","https://uencdihehs.cognition.run/?PROLIFIC_PID=699f870f1185d9ba60a6e928&STUDY_ID=6a230fc25d128c9d1b56061a&STUDY_ID=6a230fc25d128c9d1b56061a&SESSION_ID=6a26cc1c8b7ff817bd9d90a3?PROLIFIC_PID=699f870f1185d9ba60a6e928&SESSION_ID=6a26cc1c8b7ff817bd9d90a3?","en-US,en;q=0.9","699f870f1185d9ba60a6e928","6a230fc25d128c9d1b56061a","6a26cc1c8b7ff817bd9d90a3?","699f870f1185d9ba60a6e928","6a230fc25d128c9d1b56061a","6a26cc1c8b7ff817bd9d90a3?","30","[16,19,14,30,15,13,24,28,25,21,4,20,7,5,22,1,10,17,18,11,3,23,29,9,12,8,26,2,27,6]","[""P16"",""U19"",""P14"",""U30"",""P15"",""P13"",""P24"",""U28"",""P25"",""U21"",""P4"",""U20"",""P7"",""U5"",""P22"",""P1"",""U10"",""P17"",""U18"",""P11"",""U3"",""U23"",""P29"",""U9"",""U12"",""P8"",""U26"",""U2"",""P27"",""U6""]","[""U16"",""P19"",""U14"",""P30"",""U15"",""U13"",""U24"",""P28"",""U25"",""P21"",""U4"",""P20"",""U7"",""P5"",""U22"",""U1"",""P10"",""U17"",""P18"",""U11"",""P3"",""P23"",""U29"",""P9"",""P12"",""U8"",""P26"",""P2"",""U27"",""P6""]","3","3","0","0","1","1","","null","[""skateboard_v1.mp4""]","null","segmentation_video","","","","","","","","","skateboard_v1.mp4","skateboard","Predictable","[1.779085,3.017614,4.871686,6.205824,7.322361,9.125879,10.88184,12.383305,14.755864,16.698182,19.891105,22.557494,23.551606]","13","","P24","24","1","7","0.9941120000000012","false","false","false","","false","0","0","false","false","false","false",""
"","","","","","survey-multi-choice","43","2.0.0","566034","68","1","2026-06-08 14:06:08","segmentation_norming_randomized_order_maxrun_attention_v4","142.118.156.189","Mozilla/5.0 (Windows NT 10.0; Win64; x64) AppleWebKit/537.36 (KHTML, like Gecko) Chrome/149.0.0.0 Safari/537.36","WebKit","Chrome","149.0.0.0","Windows","10.0","https://uencdihehs.cognition.run/?PROLIFIC_PID=699f870f1185d9ba60a6e928&STUDY_ID=6a230fc25d128c9d1b56061a&STUDY_ID=6a230fc25d128c9d1b56061a&SESSION_ID=6a26cc1c8b7ff817bd9d90a3?PROLIFIC_PID=699f870f1185d9ba60a6e928&SESSION_ID=6a26cc1c8b7ff817bd9d90a3?","en-US,en;q=0.9","699f870f1185d9ba60a6e928","6a230fc25d128c9d1b56061a","6a26cc1c8b7ff817bd9d90a3?","699f870f1185d9ba60a6e928","6a230fc25d128c9d1b56061a","6a26cc1c8b7ff817bd9d90a3?","30","[16,19,14,30,15,13,24,28,25,21,4,20,7,5,22,1,10,17,18,11,3,23,29,9,12,8,26,2,27,6]","[""P16"",""U19"",""P14"",""U30"",""P15"",""P13"",""P24"",""U28"",""P25"",""U21"",""P4"",""U20"",""P7"",""U5"",""P22"",""P1"",""U10"",""P17"",""U18"",""P11"",""U3"",""U23"",""P29"",""U9"",""U12"",""P8"",""U26"",""U2"",""P27"",""U6""]","[""U16"",""P19"",""U14"",""P30"",""U15"",""U13"",""U24"",""P28"",""U25"",""P21"",""U4"",""P20"",""U7"",""P5"",""U22"",""U1"",""P10"",""U17"",""P18"",""U11"",""P3"",""P23"",""U29"",""P9"",""P12"",""U8"",""P26"",""P2"",""U27"",""P6""]","3","3","0","0","1","1","","3865","","{""confidence_rating"":""Very confident""}","confidence_question","[0]","","","","","","","","","skateboard","Predictable","","","","P24","24","1","7","","","","","","","","","","","","","Very confident"
"","","","","","video-keyboard-response","44","2.0.0","595925","68","1","2026-06-08 14:06:08","segmentation_norming_randomized_order_maxrun_attention_v4","142.118.156.189","Mozilla/5.0 (Windows NT 10.0; Win64; x64) AppleWebKit/537.36 (KHTML, like Gecko) Chrome/149.0.0.0 Safari/537.36","WebKit","Chrome","149.0.0.0","Windows","10.0","https://uencdihehs.cognition.run/?PROLIFIC_PID=699f870f1185d9ba60a6e928&STUDY_ID=6a230fc25d128c9d1b56061a&STUDY_ID=6a230fc25d128c9d1b56061a&SESSION_ID=6a26cc1c8b7ff817bd9d90a3?PROLIFIC_PID=699f870f1185d9ba60a6e928&SESSION_ID=6a26cc1c8b7ff817bd9d90a3?","en-US,en;q=0.9","699f870f1185d9ba60a6e928","6a230fc25d128c9d1b56061a","6a26cc1c8b7ff817bd9d90a3?","699f870f1185d9ba60a6e928","6a230fc25d128c9d1b56061a","6a26cc1c8b7ff817bd9d90a3?","30","[16,19,14,30,15,13,24,28,25,21,4,20,7,5,22,1,10,17,18,11,3,23,29,9,12,8,26,2,27,6]","[""P16"",""U19"",""P14"",""U30"",""P15"",""P13"",""P24"",""U28"",""P25"",""U21"",""P4"",""U20"",""P7"",""U5"",""P22"",""P1"",""U10"",""P17"",""U18"",""P11"",""U3"",""U23"",""P29"",""U9"",""U12"",""P8"",""U26"",""U2"",""P27"",""U6""]","[""U16"",""P19"",""U14"",""P30"",""U15"",""U13"",""U24"",""P28"",""U25"",""P21"",""U4"",""P20"",""U7"",""P5"",""U22"",""U1"",""P10"",""U17"",""P18"",""U11"",""P3"",""P23"",""U29"",""P9"",""P12"",""U8"",""P26"",""P2"",""U27"",""P6""]","3","3","0","0","1","1","","null","[""tennis_v2.mp4""]","null","segmentation_video","","","","","","","","","tennis_v2.mp4","tennis","Unpredictable","[0.659643,2.460677,3.593486,5.759164,7.967515,10.367443,11.649745,13.743457,15.43209,17.708628,20.042827,21.917273,23.793413,25.817836,27.270226,29.087018]","16","","U28","28","1","8","1.132809","false","false","false","","false","0","0","false","false","false","false",""
"","","","","","survey-multi-choice","47","2.0.0","601009","68","1","2026-06-08 14:06:08","segmentation_norming_randomized_order_maxrun_attention_v4","142.118.156.189","Mozilla/5.0 (Windows NT 10.0; Win64; x64) AppleWebKit/537.36 (KHTML, like Gecko) Chrome/149.0.0.0 Safari/537.36","WebKit","Chrome","149.0.0.0","Windows","10.0","https://uencdihehs.cognition.run/?PROLIFIC_PID=699f870f1185d9ba60a6e928&STUDY_ID=6a230fc25d128c9d1b56061a&STUDY_ID=6a230fc25d128c9d1b56061a&SESSION_ID=6a26cc1c8b7ff817bd9d90a3?PROLIFIC_PID=699f870f1185d9ba60a6e928&SESSION_ID=6a26cc1c8b7ff817bd9d90a3?","en-US,en;q=0.9","699f870f1185d9ba60a6e928","6a230fc25d128c9d1b56061a","6a26cc1c8b7ff817bd9d90a3?","699f870f1185d9ba60a6e928","6a230fc25d128c9d1b56061a","6a26cc1c8b7ff817bd9d90a3?","30","[16,19,14,30,15,13,24,28,25,21,4,20,7,5,22,1,10,17,18,11,3,23,29,9,12,8,26,2,27,6]","[""P16"",""U19"",""P14"",""U30"",""P15"",""P13"",""P24"",""U28"",""P25"",""U21"",""P4"",""U20"",""P7"",""U5"",""P22"",""P1"",""U10"",""P17"",""U18"",""P11"",""U3"",""U23"",""P29"",""U9"",""U12"",""P8"",""U26"",""U2"",""P27"",""U6""]","[""U16"",""P19"",""U14"",""P30"",""U15"",""U13"",""U24"",""P28"",""U25"",""P21"",""U4"",""P20"",""U7"",""P5"",""U22"",""U1"",""P10"",""U17"",""P18"",""U11"",""P3"",""P23"",""U29"",""P9"",""P12"",""U8"",""P26"",""P2"",""U27"",""P6""]","3","3","0","0","1","1","","5081","","{""confidence_rating"":""Very confident""}","confidence_question","[0]","","","","","","","","","tennis","Unpredictable","","","","U28","28","1","8","","","","","","","","","","","","","Very confident"
"","","","","","video-keyboard-response","48","2.0.0","628285","68","1","2026-06-08 14:06:08","segmentation_norming_randomized_order_maxrun_attention_v4","142.118.156.189","Mozilla/5.0 (Windows NT 10.0; Win64; x64) AppleWebKit/537.36 (KHTML, like Gecko) Chrome/149.0.0.0 Safari/537.36","WebKit","Chrome","149.0.0.0","Windows","10.0","https://uencdihehs.cognition.run/?PROLIFIC_PID=699f870f1185d9ba60a6e928&STUDY_ID=6a230fc25d128c9d1b56061a&STUDY_ID=6a230fc25d128c9d1b56061a&SESSION_ID=6a26cc1c8b7ff817bd9d90a3?PROLIFIC_PID=699f870f1185d9ba60a6e928&SESSION_ID=6a26cc1c8b7ff817bd9d90a3?","en-US,en;q=0.9","699f870f1185d9ba60a6e928","6a230fc25d128c9d1b56061a","6a26cc1c8b7ff817bd9d90a3?","699f870f1185d9ba60a6e928","6a230fc25d128c9d1b56061a","6a26cc1c8b7ff817bd9d90a3?","30","[16,19,14,30,15,13,24,28,25,21,4,20,7,5,22,1,10,17,18,11,3,23,29,9,12,8,26,2,27,6]","[""P16"",""U19"",""P14"",""U30"",""P15"",""P13"",""P24"",""U28"",""P25"",""U21"",""P4"",""U20"",""P7"",""U5"",""P22"",""P1"",""U10"",""P17"",""U18"",""P11"",""U3"",""U23"",""P29"",""U9"",""U12"",""P8"",""U26"",""U2"",""P27"",""U6""]","[""U16"",""P19"",""U14"",""P30"",""U15"",""U13"",""U24"",""P28"",""U25"",""P21"",""U4"",""P20"",""U7"",""P5"",""U22"",""U1"",""P10"",""U17"",""P18"",""U11"",""P3"",""P23"",""U29"",""P9"",""P12"",""U8"",""P26"",""P2"",""U27"",""P6""]","3","3","0","0","1","1","","null","[""suitcase_v1.mp4""]","null","segmentation_video","","","","","","","","","suitcase_v1.mp4","suitcase","Predictable","[0.950727,2.229152,4.189088,6.076794,8.264635,10.74953,12.44845,15.431016,16.848451,18.488455,20.575574,23.417437,25.10576,26.956618]","14","","P25","25","1","9","1.278425","false","false","false","","false","0","0","false","false","false","false",""
"","","","","","survey-multi-choice","51","2.0.0","631173","68","1","2026-06-08 14:06:08","segmentation_norming_randomized_order_maxrun_attention_v4","142.118.156.189","Mozilla/5.0 (Windows NT 10.0; Win64; x64) AppleWebKit/537.36 (KHTML, like Gecko) Chrome/149.0.0.0 Safari/537.36","WebKit","Chrome","149.0.0.0","Windows","10.0","https://uencdihehs.cognition.run/?PROLIFIC_PID=699f870f1185d9ba60a6e928&STUDY_ID=6a230fc25d128c9d1b56061a&STUDY_ID=6a230fc25d128c9d1b56061a&SESSION_ID=6a26cc1c8b7ff817bd9d90a3?PROLIFIC_PID=699f870f1185d9ba60a6e928&SESSION_ID=6a26cc1c8b7ff817bd9d90a3?","en-US,en;q=0.9","699f870f1185d9ba60a6e928","6a230fc25d128c9d1b56061a","6a26cc1c8b7ff817bd9d90a3?","699f870f1185d9ba60a6e928","6a230fc25d128c9d1b56061a","6a26cc1c8b7ff817bd9d90a3?","30","[16,19,14,30,15,13,24,28,25,21,4,20,7,5,22,1,10,17,18,11,3,23,29,9,12,8,26,2,27,6]","[""P16"",""U19"",""P14"",""U30"",""P15"",""P13"",""P24"",""U28"",""P25"",""U21"",""P4"",""U20"",""P7"",""U5"",""P22"",""P1"",""U10"",""P17"",""U18"",""P11"",""U3"",""U23"",""P29"",""U9"",""U12"",""P8"",""U26"",""U2"",""P27"",""U6""]","[""U16"",""P19"",""U14"",""P30"",""U15"",""U13"",""U24"",""P28"",""U25"",""P21"",""U4"",""P20"",""U7"",""P5"",""U22"",""U1"",""P10"",""U17"",""P18"",""U11"",""P3"",""P23"",""U29"",""P9"",""P12"",""U8"",""P26"",""P2"",""U27"",""P6""]","3","3","0","0","1","1","","2885","","{""confidence_rating"":""Very confident""}","confidence_question","[0]","","","","","","","","","suitcase","Predictable","","","","P25","25","1","9","","","","","","","","","","","","","Very confident"
"","","","","","video-keyboard-response","52","2.0.0","675365","68","1","2026-06-08 14:06:08","segmentation_norming_randomized_order_maxrun_attention_v4","142.118.156.189","Mozilla/5.0 (Windows NT 10.0; Win64; x64) AppleWebKit/537.36 (KHTML, like Gecko) Chrome/149.0.0.0 Safari/537.36","WebKit","Chrome","149.0.0.0","Windows","10.0","https://uencdihehs.cognition.run/?PROLIFIC_PID=699f870f1185d9ba60a6e928&STUDY_ID=6a230fc25d128c9d1b56061a&STUDY_ID=6a230fc25d128c9d1b56061a&SESSION_ID=6a26cc1c8b7ff817bd9d90a3?PROLIFIC_PID=699f870f1185d9ba60a6e928&SESSION_ID=6a26cc1c8b7ff817bd9d90a3?","en-US,en;q=0.9","699f870f1185d9ba60a6e928","6a230fc25d128c9d1b56061a","6a26cc1c8b7ff817bd9d90a3?","699f870f1185d9ba60a6e928","6a230fc25d128c9d1b56061a","6a26cc1c8b7ff817bd9d90a3?","30","[16,19,14,30,15,13,24,28,25,21,4,20,7,5,22,1,10,17,18,11,3,23,29,9,12,8,26,2,27,6]","[""P16"",""U19"",""P14"",""U30"",""P15"",""P13"",""P24"",""U28"",""P25"",""U21"",""P4"",""U20"",""P7"",""U5"",""P22"",""P1"",""U10"",""P17"",""U18"",""P11"",""U3"",""U23"",""P29"",""U9"",""U12"",""P8"",""U26"",""U2"",""P27"",""U6""]","[""U16"",""P19"",""U14"",""P30"",""U15"",""U13"",""U24"",""P28"",""U25"",""P21"",""U4"",""P20"",""U7"",""P5"",""U22"",""U1"",""P10"",""U17"",""P18"",""U11"",""P3"",""P23"",""U29"",""P9"",""P12"",""U8"",""P26"",""P2"",""U27"",""P6""]","3","3","0","0","1","1","","null","[""printer_v2.mp4""]","null","segmentation_video","","","","","","","","","printer_v2.mp4","printer","Unpredictable","[0.910587,2.533412,3.778793,5.218643,6.773814,8.36199,10.713765,12.395633,15.03148,16.61502,18.677969,21.466743,24.026865,26.90584,29.610496,31.518068,33.033669,34.464982,36.011462,38.070697,40.156174,41.935846,43.280236]","23","","U21","21","1","10","1.2453809999999996","false","false","false","","false","0","0","false","false","false","false",""
"","","","","","survey-multi-choice","55","2.0.0","679757","68","1","2026-06-08 14:06:08","segmentation_norming_randomized_order_maxrun_attention_v4","142.118.156.189","Mozilla/5.0 (Windows NT 10.0; Win64; x64) AppleWebKit/537.36 (KHTML, like Gecko) Chrome/149.0.0.0 Safari/537.36","WebKit","Chrome","149.0.0.0","Windows","10.0","https://uencdihehs.cognition.run/?PROLIFIC_PID=699f870f1185d9ba60a6e928&STUDY_ID=6a230fc25d128c9d1b56061a&STUDY_ID=6a230fc25d128c9d1b56061a&SESSION_ID=6a26cc1c8b7ff817bd9d90a3?PROLIFIC_PID=699f870f1185d9ba60a6e928&SESSION_ID=6a26cc1c8b7ff817bd9d90a3?","en-US,en;q=0.9","699f870f1185d9ba60a6e928","6a230fc25d128c9d1b56061a","6a26cc1c8b7ff817bd9d90a3?","699f870f1185d9ba60a6e928","6a230fc25d128c9d1b56061a","6a26cc1c8b7ff817bd9d90a3?","30","[16,19,14,30,15,13,24,28,25,21,4,20,7,5,22,1,10,17,18,11,3,23,29,9,12,8,26,2,27,6]","[""P16"",""U19"",""P14"",""U30"",""P15"",""P13"",""P24"",""U28"",""P25"",""U21"",""P4"",""U20"",""P7"",""U5"",""P22"",""P1"",""U10"",""P17"",""U18"",""P11"",""U3"",""U23"",""P29"",""U9"",""U12"",""P8"",""U26"",""U2"",""P27"",""U6""]","[""U16"",""P19"",""U14"",""P30"",""U15"",""U13"",""U24"",""P28"",""U25"",""P21"",""U4"",""P20"",""U7"",""P5"",""U22"",""U1"",""P10"",""U17"",""P18"",""U11"",""P3"",""P23"",""U29"",""P9"",""P12"",""U8"",""P26"",""P2"",""U27"",""P6""]","3","3","0","0","1","1","","4387","","{""confidence_rating"":""Very confident""}","confidence_question","[0]","","","","","","","","","printer","Unpredictable","","","","U21","21","1","10","","","","","","","","","","","","","Very confident"
"","","","","","video-keyboard-response","56","2.0.0","715009","68","1","2026-06-08 14:06:08","segmentation_norming_randomized_order_maxrun_attention_v4","142.118.156.189","Mozilla/5.0 (Windows NT 10.0; Win64; x64) AppleWebKit/537.36 (KHTML, like Gecko) Chrome/149.0.0.0 Safari/537.36","WebKit","Chrome","149.0.0.0","Windows","10.0","https://uencdihehs.cognition.run/?PROLIFIC_PID=699f870f1185d9ba60a6e928&STUDY_ID=6a230fc25d128c9d1b56061a&STUDY_ID=6a230fc25d128c9d1b56061a&SESSION_ID=6a26cc1c8b7ff817bd9d90a3?PROLIFIC_PID=699f870f1185d9ba60a6e928&SESSION_ID=6a26cc1c8b7ff817bd9d90a3?","en-US,en;q=0.9","699f870f1185d9ba60a6e928","6a230fc25d128c9d1b56061a","6a26cc1c8b7ff817bd9d90a3?","699f870f1185d9ba60a6e928","6a230fc25d128c9d1b56061a","6a26cc1c8b7ff817bd9d90a3?","30","[16,19,14,30,15,13,24,28,25,21,4,20,7,5,22,1,10,17,18,11,3,23,29,9,12,8,26,2,27,6]","[""P16"",""U19"",""P14"",""U30"",""P15"",""P13"",""P24"",""U28"",""P25"",""U21"",""P4"",""U20"",""P7"",""U5"",""P22"",""P1"",""U10"",""P17"",""U18"",""P11"",""U3"",""U23"",""P29"",""U9"",""U12"",""P8"",""U26"",""U2"",""P27"",""U6""]","[""U16"",""P19"",""U14"",""P30"",""U15"",""U13"",""U24"",""P28"",""U25"",""P21"",""U4"",""P20"",""U7"",""P5"",""U22"",""U1"",""P10"",""U17"",""P18"",""U11"",""P3"",""P23"",""U29"",""P9"",""P12"",""U8"",""P26"",""P2"",""U27"",""P6""]","3","3","0","0","1","1","","null","[""bathroom_v1.mp4""]","null","segmentation_video","","","","","","","","","bathroom_v1.mp4","bathroom","Predictable","[2.523524,4.581815,6.372658,7.784735,9.949021,11.816889,13.700823,15.390799,17.285094,18.976337,21.65212,23.426765,24.720998,26.598978,28.845824,30.294338,31.869709,34.120424]","18","","P4","4","1","11","1.294233000000002","false","false","false","","false","0","0","false","false","false","false",""
"","","","","","survey-multi-choice","59","2.0.0","719428","68","1","2026-06-08 14:06:08","segmentation_norming_randomized_order_maxrun_attention_v4","142.118.156.189","Mozilla/5.0 (Windows NT 10.0; Win64; x64) AppleWebKit/537.36 (KHTML, like Gecko) Chrome/149.0.0.0 Safari/537.36","WebKit","Chrome","149.0.0.0","Windows","10.0","https://uencdihehs.cognition.run/?PROLIFIC_PID=699f870f1185d9ba60a6e928&STUDY_ID=6a230fc25d128c9d1b56061a&STUDY_ID=6a230fc25d128c9d1b56061a&SESSION_ID=6a26cc1c8b7ff817bd9d90a3?PROLIFIC_PID=699f870f1185d9ba60a6e928&SESSION_ID=6a26cc1c8b7ff817bd9d90a3?","en-US,en;q=0.9","699f870f1185d9ba60a6e928","6a230fc25d128c9d1b56061a","6a26cc1c8b7ff817bd9d90a3?","699f870f1185d9ba60a6e928","6a230fc25d128c9d1b56061a","6a26cc1c8b7ff817bd9d90a3?","30","[16,19,14,30,15,13,24,28,25,21,4,20,7,5,22,1,10,17,18,11,3,23,29,9,12,8,26,2,27,6]","[""P16"",""U19"",""P14"",""U30"",""P15"",""P13"",""P24"",""U28"",""P25"",""U21"",""P4"",""U20"",""P7"",""U5"",""P22"",""P1"",""U10"",""P17"",""U18"",""P11"",""U3"",""U23"",""P29"",""U9"",""U12"",""P8"",""U26"",""U2"",""P27"",""U6""]","[""U16"",""P19"",""U14"",""P30"",""U15"",""U13"",""U24"",""P28"",""U25"",""P21"",""U4"",""P20"",""U7"",""P5"",""U22"",""U1"",""P10"",""U17"",""P18"",""U11"",""P3"",""P23"",""U29"",""P9"",""P12"",""U8"",""P26"",""P2"",""U27"",""P6""]","3","3","0","0","1","1","","4416","","{""confidence_rating"":""Very confident""}","confidence_question","[0]","","","","","","","","","bathroom","Predictable","","","","P4","4","1","11","","","","","","","","","","","","","Very confident"
"","","","","","video-keyboard-response","60","2.0.0","743069","68","1","2026-06-08 14:06:08","segmentation_norming_randomized_order_maxrun_attention_v4","142.118.156.189","Mozilla/5.0 (Windows NT 10.0; Win64; x64) AppleWebKit/537.36 (KHTML, like Gecko) Chrome/149.0.0.0 Safari/537.36","WebKit","Chrome","149.0.0.0","Windows","10.0","https://uencdihehs.cognition.run/?PROLIFIC_PID=699f870f1185d9ba60a6e928&STUDY_ID=6a230fc25d128c9d1b56061a&STUDY_ID=6a230fc25d128c9d1b56061a&SESSION_ID=6a26cc1c8b7ff817bd9d90a3?PROLIFIC_PID=699f870f1185d9ba60a6e928&SESSION_ID=6a26cc1c8b7ff817bd9d90a3?","en-US,en;q=0.9","699f870f1185d9ba60a6e928","6a230fc25d128c9d1b56061a","6a26cc1c8b7ff817bd9d90a3?","699f870f1185d9ba60a6e928","6a230fc25d128c9d1b56061a","6a26cc1c8b7ff817bd9d90a3?","30","[16,19,14,30,15,13,24,28,25,21,4,20,7,5,22,1,10,17,18,11,3,23,29,9,12,8,26,2,27,6]","[""P16"",""U19"",""P14"",""U30"",""P15"",""P13"",""P24"",""U28"",""P25"",""U21"",""P4"",""U20"",""P7"",""U5"",""P22"",""P1"",""U10"",""P17"",""U18"",""P11"",""U3"",""U23"",""P29"",""U9"",""U12"",""P8"",""U26"",""U2"",""P27"",""U6""]","[""U16"",""P19"",""U14"",""P30"",""U15"",""U13"",""U24"",""P28"",""U25"",""P21"",""U4"",""P20"",""U7"",""P5"",""U22"",""U1"",""P10"",""U17"",""P18"",""U11"",""P3"",""P23"",""U29"",""P9"",""P12"",""U8"",""P26"",""P2"",""U27"",""P6""]","3","3","0","0","1","1","","null","[""poster_v2.mp4""]","null","segmentation_video","","","","","","","","","poster_v2.mp4","poster","Unpredictable","[1.093136,2.564016,4.032048,5.728408,7.244429,8.789271,10.487843,12.039573,13.926993,15.861027,17.874364,19.511152,21.239946,22.602536]","14","","U20","20","1","12","1.3625900000000009","false","false","false","","false","0","0","false","false","false","false",""
"","","","","","survey-multi-choice","63","2.0.0","747208","68","1","2026-06-08 14:06:08","segmentation_norming_randomized_order_maxrun_attention_v4","142.118.156.189","Mozilla/5.0 (Windows NT 10.0; Win64; x64) AppleWebKit/537.36 (KHTML, like Gecko) Chrome/149.0.0.0 Safari/537.36","WebKit","Chrome","149.0.0.0","Windows","10.0","https://uencdihehs.cognition.run/?PROLIFIC_PID=699f870f1185d9ba60a6e928&STUDY_ID=6a230fc25d128c9d1b56061a&STUDY_ID=6a230fc25d128c9d1b56061a&SESSION_ID=6a26cc1c8b7ff817bd9d90a3?PROLIFIC_PID=699f870f1185d9ba60a6e928&SESSION_ID=6a26cc1c8b7ff817bd9d90a3?","en-US,en;q=0.9","699f870f1185d9ba60a6e928","6a230fc25d128c9d1b56061a","6a26cc1c8b7ff817bd9d90a3?","699f870f1185d9ba60a6e928","6a230fc25d128c9d1b56061a","6a26cc1c8b7ff817bd9d90a3?","30","[16,19,14,30,15,13,24,28,25,21,4,20,7,5,22,1,10,17,18,11,3,23,29,9,12,8,26,2,27,6]","[""P16"",""U19"",""P14"",""U30"",""P15"",""P13"",""P24"",""U28"",""P25"",""U21"",""P4"",""U20"",""P7"",""U5"",""P22"",""P1"",""U10"",""P17"",""U18"",""P11"",""U3"",""U23"",""P29"",""U9"",""U12"",""P8"",""U26"",""U2"",""P27"",""U6""]","[""U16"",""P19"",""U14"",""P30"",""U15"",""U13"",""U24"",""P28"",""U25"",""P21"",""U4"",""P20"",""U7"",""P5"",""U22"",""U1"",""P10"",""U17"",""P18"",""U11"",""P3"",""P23"",""U29"",""P9"",""P12"",""U8"",""P26"",""P2"",""U27"",""P6""]","3","3","0","0","1","1","","4135","","{""confidence_rating"":""Very confident""}","confidence_question","[0]","","","","","","","","","poster","Unpredictable","","","","U20","20","1","12","","","","","","","","","","","","","Very confident"
"","","","","","video-keyboard-response","64","2.0.0","776651","68","1","2026-06-08 14:06:08","segmentation_norming_randomized_order_maxrun_attention_v4","142.118.156.189","Mozilla/5.0 (Windows NT 10.0; Win64; x64) AppleWebKit/537.36 (KHTML, like Gecko) Chrome/149.0.0.0 Safari/537.36","WebKit","Chrome","149.0.0.0","Windows","10.0","https://uencdihehs.cognition.run/?PROLIFIC_PID=699f870f1185d9ba60a6e928&STUDY_ID=6a230fc25d128c9d1b56061a&STUDY_ID=6a230fc25d128c9d1b56061a&SESSION_ID=6a26cc1c8b7ff817bd9d90a3?PROLIFIC_PID=699f870f1185d9ba60a6e928&SESSION_ID=6a26cc1c8b7ff817bd9d90a3?","en-US,en;q=0.9","699f870f1185d9ba60a6e928","6a230fc25d128c9d1b56061a","6a26cc1c8b7ff817bd9d90a3?","699f870f1185d9ba60a6e928","6a230fc25d128c9d1b56061a","6a26cc1c8b7ff817bd9d90a3?","30","[16,19,14,30,15,13,24,28,25,21,4,20,7,5,22,1,10,17,18,11,3,23,29,9,12,8,26,2,27,6]","[""P16"",""U19"",""P14"",""U30"",""P15"",""P13"",""P24"",""U28"",""P25"",""U21"",""P4"",""U20"",""P7"",""U5"",""P22"",""P1"",""U10"",""P17"",""U18"",""P11"",""U3"",""U23"",""P29"",""U9"",""U12"",""P8"",""U26"",""U2"",""P27"",""U6""]","[""U16"",""P19"",""U14"",""P30"",""U15"",""U13"",""U24"",""P28"",""U25"",""P21"",""U4"",""P20"",""U7"",""P5"",""U22"",""U1"",""P10"",""U17"",""P18"",""U11"",""P3"",""P23"",""U29"",""P9"",""P12"",""U8"",""P26"",""P2"",""U27"",""P6""]","3","3","0","0","1","1","","null","[""bike_v1.mp4""]","null","segmentation_video","","","","","","","","","bike_v1.mp4","bike","Predictable","[0.851458,2.899135,5.228218,6.849471,8.663392,10.60665,12.224778,14.208969,16.242562,18.643085,20.250169,21.288966,22.252139,23.017964,24.684794,27.555049]","16","","P7","7","1","13","0.7658249999999995","false","false","false","","false","0","0","false","false","false","false",""
"","","","","","survey-multi-choice","67","2.0.0","782636","68","1","2026-06-08 14:06:08","segmentation_norming_randomized_order_maxrun_attention_v4","142.118.156.189","Mozilla/5.0 (Windows NT 10.0; Win64; x64) AppleWebKit/537.36 (KHTML, like Gecko) Chrome/149.0.0.0 Safari/537.36","WebKit","Chrome","149.0.0.0","Windows","10.0","https://uencdihehs.cognition.run/?PROLIFIC_PID=699f870f1185d9ba60a6e928&STUDY_ID=6a230fc25d128c9d1b56061a&STUDY_ID=6a230fc25d128c9d1b56061a&SESSION_ID=6a26cc1c8b7ff817bd9d90a3?PROLIFIC_PID=699f870f1185d9ba60a6e928&SESSION_ID=6a26cc1c8b7ff817bd9d90a3?","en-US,en;q=0.9","699f870f1185d9ba60a6e928","6a230fc25d128c9d1b56061a","6a26cc1c8b7ff817bd9d90a3?","699f870f1185d9ba60a6e928","6a230fc25d128c9d1b56061a","6a26cc1c8b7ff817bd9d90a3?","30","[16,19,14,30,15,13,24,28,25,21,4,20,7,5,22,1,10,17,18,11,3,23,29,9,12,8,26,2,27,6]","[""P16"",""U19"",""P14"",""U30"",""P15"",""P13"",""P24"",""U28"",""P25"",""U21"",""P4"",""U20"",""P7"",""U5"",""P22"",""P1"",""U10"",""P17"",""U18"",""P11"",""U3"",""U23"",""P29"",""U9"",""U12"",""P8"",""U26"",""U2"",""P27"",""U6""]","[""U16"",""P19"",""U14"",""P30"",""U15"",""U13"",""U24"",""P28"",""U25"",""P21"",""U4"",""P20"",""U7"",""P5"",""U22"",""U1"",""P10"",""U17"",""P18"",""U11"",""P3"",""P23"",""U29"",""P9"",""P12"",""U8"",""P26"",""P2"",""U27"",""P6""]","3","3","0","0","1","1","","5981","","{""confidence_rating"":""Very confident""}","confidence_question","[0]","","","","","","","","","bike","Predictable","","","","P7","7","1","13","","","","","","","","","","","","","Very confident"
"","","","","","video-keyboard-response","68","2.0.0","809532","68","1","2026-06-08 14:06:08","segmentation_norming_randomized_order_maxrun_attention_v4","142.118.156.189","Mozilla/5.0 (Windows NT 10.0; Win64; x64) AppleWebKit/537.36 (KHTML, like Gecko) Chrome/149.0.0.0 Safari/537.36","WebKit","Chrome","149.0.0.0","Windows","10.0","https://uencdihehs.cognition.run/?PROLIFIC_PID=699f870f1185d9ba60a6e928&STUDY_ID=6a230fc25d128c9d1b56061a&STUDY_ID=6a230fc25d128c9d1b56061a&SESSION_ID=6a26cc1c8b7ff817bd9d90a3?PROLIFIC_PID=699f870f1185d9ba60a6e928&SESSION_ID=6a26cc1c8b7ff817bd9d90a3?","en-US,en;q=0.9","699f870f1185d9ba60a6e928","6a230fc25d128c9d1b56061a","6a26cc1c8b7ff817bd9d90a3?","699f870f1185d9ba60a6e928","6a230fc25d128c9d1b56061a","6a26cc1c8b7ff817bd9d90a3?","30","[16,19,14,30,15,13,24,28,25,21,4,20,7,5,22,1,10,17,18,11,3,23,29,9,12,8,26,2,27,6]","[""P16"",""U19"",""P14"",""U30"",""P15"",""P13"",""P24"",""U28"",""P25"",""U21"",""P4"",""U20"",""P7"",""U5"",""P22"",""P1"",""U10"",""P17"",""U18"",""P11"",""U3"",""U23"",""P29"",""U9"",""U12"",""P8"",""U26"",""U2"",""P27"",""U6""]","[""U16"",""P19"",""U14"",""P30"",""U15"",""U13"",""U24"",""P28"",""U25"",""P21"",""U4"",""P20"",""U7"",""P5"",""U22"",""U1"",""P10"",""U17"",""P18"",""U11"",""P3"",""P23"",""U29"",""P9"",""P12"",""U8"",""P26"",""P2"",""U27"",""P6""]","3","3","0","0","1","1","","null","[""beach_v2.mp4""]","null","segmentation_video","","","","","","","","","beach_v2.mp4","beach","Unpredictable","[0.909943,2.407359,4.647416,6.426389,8.392715,10.624214,12.815193,14.378903,16.035469,17.252523,18.428298,19.458696,20.359672,21.799137,23.457081,24.73747,26.328921]","17","","U5","5","1","14","0.900976","false","false","false","","false","0","0","false","false","false","false",""
"","","","","","survey-multi-choice","71","2.0.0","815762","68","1","2026-06-08 14:06:08","segmentation_norming_randomized_order_maxrun_attention_v4","142.118.156.189","Mozilla/5.0 (Windows NT 10.0; Win64; x64) AppleWebKit/537.36 (KHTML, like Gecko) Chrome/149.0.0.0 Safari/537.36","WebKit","Chrome","149.0.0.0","Windows","10.0","https://uencdihehs.cognition.run/?PROLIFIC_PID=699f870f1185d9ba60a6e928&STUDY_ID=6a230fc25d128c9d1b56061a&STUDY_ID=6a230fc25d128c9d1b56061a&SESSION_ID=6a26cc1c8b7ff817bd9d90a3?PROLIFIC_PID=699f870f1185d9ba60a6e928&SESSION_ID=6a26cc1c8b7ff817bd9d90a3?","en-US,en;q=0.9","699f870f1185d9ba60a6e928","6a230fc25d128c9d1b56061a","6a26cc1c8b7ff817bd9d90a3?","699f870f1185d9ba60a6e928","6a230fc25d128c9d1b56061a","6a26cc1c8b7ff817bd9d90a3?","30","[16,19,14,30,15,13,24,28,25,21,4,20,7,5,22,1,10,17,18,11,3,23,29,9,12,8,26,2,27,6]","[""P16"",""U19"",""P14"",""U30"",""P15"",""P13"",""P24"",""U28"",""P25"",""U21"",""P4"",""U20"",""P7"",""U5"",""P22"",""P1"",""U10"",""P17"",""U18"",""P11"",""U3"",""U23"",""P29"",""U9"",""U12"",""P8"",""U26"",""U2"",""P27"",""U6""]","[""U16"",""P19"",""U14"",""P30"",""U15"",""U13"",""U24"",""P28"",""U25"",""P21"",""U4"",""P20"",""U7"",""P5"",""U22"",""U1"",""P10"",""U17"",""P18"",""U11"",""P3"",""P23"",""U29"",""P9"",""P12"",""U8"",""P26"",""P2"",""U27"",""P6""]","3","3","0","0","1","1","","6226","","{""confidence_rating"":""Very confident""}","confidence_question","[0]","","","","","","","","","beach","Unpredictable","","","","U5","5","1","14","","","","","","","","","","","","","Very confident"
"","","","","","video-keyboard-response","72","2.0.0","835011","68","1","2026-06-08 14:06:08","segmentation_norming_randomized_order_maxrun_attention_v4","142.118.156.189","Mozilla/5.0 (Windows NT 10.0; Win64; x64) AppleWebKit/537.36 (KHTML, like Gecko) Chrome/149.0.0.0 Safari/537.36","WebKit","Chrome","149.0.0.0","Windows","10.0","https://uencdihehs.cognition.run/?PROLIFIC_PID=699f870f1185d9ba60a6e928&STUDY_ID=6a230fc25d128c9d1b56061a&STUDY_ID=6a230fc25d128c9d1b56061a&SESSION_ID=6a26cc1c8b7ff817bd9d90a3?PROLIFIC_PID=699f870f1185d9ba60a6e928&SESSION_ID=6a26cc1c8b7ff817bd9d90a3?","en-US,en;q=0.9","699f870f1185d9ba60a6e928","6a230fc25d128c9d1b56061a","6a26cc1c8b7ff817bd9d90a3?","699f870f1185d9ba60a6e928","6a230fc25d128c9d1b56061a","6a26cc1c8b7ff817bd9d90a3?","30","[16,19,14,30,15,13,24,28,25,21,4,20,7,5,22,1,10,17,18,11,3,23,29,9,12,8,26,2,27,6]","[""P16"",""U19"",""P14"",""U30"",""P15"",""P13"",""P24"",""U28"",""P25"",""U21"",""P4"",""U20"",""P7"",""U5"",""P22"",""P1"",""U10"",""P17"",""U18"",""P11"",""U3"",""U23"",""P29"",""U9"",""U12"",""P8"",""U26"",""U2"",""P27"",""U6""]","[""U16"",""P19"",""U14"",""P30"",""U15"",""U13"",""U24"",""P28"",""U25"",""P21"",""U4"",""P20"",""U7"",""P5"",""U22"",""U1"",""P10"",""U17"",""P18"",""U11"",""P3"",""P23"",""U29"",""P9"",""P12"",""U8"",""P26"",""P2"",""U27"",""P6""]","3","3","0","0","1","1","","null","[""record_v1.mp4""]","null","segmentation_video","","","","","","","","","record_v1.mp4","record","Predictable","[0.934355,2.206339,3.47242,4.226955,5.274579,7.303527,9.105262,10.443915,12.105965,14.266663,16.771108,19.087725]","12","","P22","22","1","15","0.7545350000000002","false","false","false","","false","0","0","false","false","false","false",""
"","","","","","survey-multi-choice","75","2.0.0","853769","68","1","2026-06-08 14:06:08","segmentation_norming_randomized_order_maxrun_attention_v4","142.118.156.189","Mozilla/5.0 (Windows NT 10.0; Win64; x64) AppleWebKit/537.36 (KHTML, like Gecko) Chrome/149.0.0.0 Safari/537.36","WebKit","Chrome","149.0.0.0","Windows","10.0","https://uencdihehs.cognition.run/?PROLIFIC_PID=699f870f1185d9ba60a6e928&STUDY_ID=6a230fc25d128c9d1b56061a&STUDY_ID=6a230fc25d128c9d1b56061a&SESSION_ID=6a26cc1c8b7ff817bd9d90a3?PROLIFIC_PID=699f870f1185d9ba60a6e928&SESSION_ID=6a26cc1c8b7ff817bd9d90a3?","en-US,en;q=0.9","699f870f1185d9ba60a6e928","6a230fc25d128c9d1b56061a","6a26cc1c8b7ff817bd9d90a3?","699f870f1185d9ba60a6e928","6a230fc25d128c9d1b56061a","6a26cc1c8b7ff817bd9d90a3?","30","[16,19,14,30,15,13,24,28,25,21,4,20,7,5,22,1,10,17,18,11,3,23,29,9,12,8,26,2,27,6]","[""P16"",""U19"",""P14"",""U30"",""P15"",""P13"",""P24"",""U28"",""P25"",""U21"",""P4"",""U20"",""P7"",""U5"",""P22"",""P1"",""U10"",""P17"",""U18"",""P11"",""U3"",""U23"",""P29"",""U9"",""U12"",""P8"",""U26"",""U2"",""P27"",""U6""]","[""U16"",""P19"",""U14"",""P30"",""U15"",""U13"",""U24"",""P28"",""U25"",""P21"",""U4"",""P20"",""U7"",""P5"",""U22"",""U1"",""P10"",""U17"",""P18"",""U11"",""P3"",""P23"",""U29"",""P9"",""P12"",""U8"",""P26"",""P2"",""U27"",""P6""]","3","3","0","0","1","1","","18755","","{""confidence_rating"":""Very confident""}","confidence_question","[0]","","","","","","","","","record","Predictable","","","","P22","22","1","15","","","","","","","","","","","","","Very confident"
"","","","","","video-keyboard-response","76","2.0.0","883042","68","1","2026-06-08 14:06:08","segmentation_norming_randomized_order_maxrun_attention_v4","142.118.156.189","Mozilla/5.0 (Windows NT 10.0; Win64; x64) AppleWebKit/537.36 (KHTML, like Gecko) Chrome/149.0.0.0 Safari/537.36","WebKit","Chrome","149.0.0.0","Windows","10.0","https://uencdihehs.cognition.run/?PROLIFIC_PID=699f870f1185d9ba60a6e928&STUDY_ID=6a230fc25d128c9d1b56061a&STUDY_ID=6a230fc25d128c9d1b56061a&SESSION_ID=6a26cc1c8b7ff817bd9d90a3?PROLIFIC_PID=699f870f1185d9ba60a6e928&SESSION_ID=6a26cc1c8b7ff817bd9d90a3?","en-US,en;q=0.9","699f870f1185d9ba60a6e928","6a230fc25d128c9d1b56061a","6a26cc1c8b7ff817bd9d90a3?","699f870f1185d9ba60a6e928","6a230fc25d128c9d1b56061a","6a26cc1c8b7ff817bd9d90a3?","30","[16,19,14,30,15,13,24,28,25,21,4,20,7,5,22,1,10,17,18,11,3,23,29,9,12,8,26,2,27,6]","[""P16"",""U19"",""P14"",""U30"",""P15"",""P13"",""P24"",""U28"",""P25"",""U21"",""P4"",""U20"",""P7"",""U5"",""P22"",""P1"",""U10"",""P17"",""U18"",""P11"",""U3"",""U23"",""P29"",""U9"",""U12"",""P8"",""U26"",""U2"",""P27"",""U6""]","[""U16"",""P19"",""U14"",""P30"",""U15"",""U13"",""U24"",""P28"",""U25"",""P21"",""U4"",""P20"",""U7"",""P5"",""U22"",""U1"",""P10"",""U17"",""P18"",""U11"",""P3"",""P23"",""U29"",""P9"",""P12"",""U8"",""P26"",""P2"",""U27"",""P6""]","3","3","0","0","1","1","","null","[""baking_v1.mp4""]","null","segmentation_video","","","","","","","","","baking_v1.mp4","baking","Predictable","[2.185438,4.140587,5.857976,7.190744,10.537192,11.879222,14.495564,16.770316,19.293442,20.934841,22.420474,24.069051,25.342466,28.054849]","14","","P1","1","1","16","1.273415","false","false","false","","false","0","0","false","false","false","false",""
"","","","","","survey-multi-choice","79","2.0.0","887434","68","1","2026-06-08 14:06:08","segmentation_norming_randomized_order_maxrun_attention_v4","142.118.156.189","Mozilla/5.0 (Windows NT 10.0; Win64; x64) AppleWebKit/537.36 (KHTML, like Gecko) Chrome/149.0.0.0 Safari/537.36","WebKit","Chrome","149.0.0.0","Windows","10.0","https://uencdihehs.cognition.run/?PROLIFIC_PID=699f870f1185d9ba60a6e928&STUDY_ID=6a230fc25d128c9d1b56061a&STUDY_ID=6a230fc25d128c9d1b56061a&SESSION_ID=6a26cc1c8b7ff817bd9d90a3?PROLIFIC_PID=699f870f1185d9ba60a6e928&SESSION_ID=6a26cc1c8b7ff817bd9d90a3?","en-US,en;q=0.9","699f870f1185d9ba60a6e928","6a230fc25d128c9d1b56061a","6a26cc1c8b7ff817bd9d90a3?","699f870f1185d9ba60a6e928","6a230fc25d128c9d1b56061a","6a26cc1c8b7ff817bd9d90a3?","30","[16,19,14,30,15,13,24,28,25,21,4,20,7,5,22,1,10,17,18,11,3,23,29,9,12,8,26,2,27,6]","[""P16"",""U19"",""P14"",""U30"",""P15"",""P13"",""P24"",""U28"",""P25"",""U21"",""P4"",""U20"",""P7"",""U5"",""P22"",""P1"",""U10"",""P17"",""U18"",""P11"",""U3"",""U23"",""P29"",""U9"",""U12"",""P8"",""U26"",""U2"",""P27"",""U6""]","[""U16"",""P19"",""U14"",""P30"",""U15"",""U13"",""U24"",""P28"",""U25"",""P21"",""U4"",""P20"",""U7"",""P5"",""U22"",""U1"",""P10"",""U17"",""P18"",""U11"",""P3"",""P23"",""U29"",""P9"",""P12"",""U8"",""P26"",""P2"",""U27"",""P6""]","3","3","0","0","1","1","","4387","","{""confidence_rating"":""Very confident""}","confidence_question","[0]","","","","","","","","","baking","Predictable","","","","P1","1","1","16","","","","","","","","","","","","","Very confident"
"","","","","","video-keyboard-response","80","2.0.0","918042","68","1","2026-06-08 14:06:08","segmentation_norming_randomized_order_maxrun_attention_v4","142.118.156.189","Mozilla/5.0 (Windows NT 10.0; Win64; x64) AppleWebKit/537.36 (KHTML, like Gecko) Chrome/149.0.0.0 Safari/537.36","WebKit","Chrome","149.0.0.0","Windows","10.0","https://uencdihehs.cognition.run/?PROLIFIC_PID=699f870f1185d9ba60a6e928&STUDY_ID=6a230fc25d128c9d1b56061a&STUDY_ID=6a230fc25d128c9d1b56061a&SESSION_ID=6a26cc1c8b7ff817bd9d90a3?PROLIFIC_PID=699f870f1185d9ba60a6e928&SESSION_ID=6a26cc1c8b7ff817bd9d90a3?","en-US,en;q=0.9","699f870f1185d9ba60a6e928","6a230fc25d128c9d1b56061a","6a26cc1c8b7ff817bd9d90a3?","699f870f1185d9ba60a6e928","6a230fc25d128c9d1b56061a","6a26cc1c8b7ff817bd9d90a3?","30","[16,19,14,30,15,13,24,28,25,21,4,20,7,5,22,1,10,17,18,11,3,23,29,9,12,8,26,2,27,6]","[""P16"",""U19"",""P14"",""U30"",""P15"",""P13"",""P24"",""U28"",""P25"",""U21"",""P4"",""U20"",""P7"",""U5"",""P22"",""P1"",""U10"",""P17"",""U18"",""P11"",""U3"",""U23"",""P29"",""U9"",""U12"",""P8"",""U26"",""U2"",""P27"",""U6""]","[""U16"",""P19"",""U14"",""P30"",""U15"",""U13"",""U24"",""P28"",""U25"",""P21"",""U4"",""P20"",""U7"",""P5"",""U22"",""U1"",""P10"",""U17"",""P18"",""U11"",""P3"",""P23"",""U29"",""P9"",""P12"",""U8"",""P26"",""P2"",""U27"",""P6""]","3","3","0","0","1","1","","null","[""cleaning_v2.mp4""]","null","segmentation_video","","","","","","","","","cleaning_v2.mp4","cleaning","Unpredictable","[1.183349,3.10768,4.851803,6.684723,8.084826,9.606376,11.40498,12.830853,14.526457,17.242756,19.645976,21.410141,23.415191,25.463129,26.666707,28.103358,29.842768]","17","","U10","10","1","17","1.2035780000000003","false","false","false","","false","0","0","false","false","false","false",""
"","","","","","survey-multi-choice","83","2.0.0","921903","68","1","2026-06-08 14:06:08","segmentation_norming_randomized_order_maxrun_attention_v4","142.118.156.189","Mozilla/5.0 (Windows NT 10.0; Win64; x64) AppleWebKit/537.36 (KHTML, like Gecko) Chrome/149.0.0.0 Safari/537.36","WebKit","Chrome","149.0.0.0","Windows","10.0","https://uencdihehs.cognition.run/?PROLIFIC_PID=699f870f1185d9ba60a6e928&STUDY_ID=6a230fc25d128c9d1b56061a&STUDY_ID=6a230fc25d128c9d1b56061a&SESSION_ID=6a26cc1c8b7ff817bd9d90a3?PROLIFIC_PID=699f870f1185d9ba60a6e928&SESSION_ID=6a26cc1c8b7ff817bd9d90a3?","en-US,en;q=0.9","699f870f1185d9ba60a6e928","6a230fc25d128c9d1b56061a","6a26cc1c8b7ff817bd9d90a3?","699f870f1185d9ba60a6e928","6a230fc25d128c9d1b56061a","6a26cc1c8b7ff817bd9d90a3?","30","[16,19,14,30,15,13,24,28,25,21,4,20,7,5,22,1,10,17,18,11,3,23,29,9,12,8,26,2,27,6]","[""P16"",""U19"",""P14"",""U30"",""P15"",""P13"",""P24"",""U28"",""P25"",""U21"",""P4"",""U20"",""P7"",""U5"",""P22"",""P1"",""U10"",""P17"",""U18"",""P11"",""U3"",""U23"",""P29"",""U9"",""U12"",""P8"",""U26"",""U2"",""P27"",""U6""]","[""U16"",""P19"",""U14"",""P30"",""U15"",""U13"",""U24"",""P28"",""U25"",""P21"",""U4"",""P20"",""U7"",""P5"",""U22"",""U1"",""P10"",""U17"",""P18"",""U11"",""P3"",""P23"",""U29"",""P9"",""P12"",""U8"",""P26"",""P2"",""U27"",""P6""]","3","3","0","0","1","1","","3855","","{""confidence_rating"":""Very confident""}","confidence_question","[0]","","","","","","","","","cleaning","Unpredictable","","","","U10","10","1","17","","","","","","","","","","","","","Very confident"
"","","","","","video-keyboard-response","84","2.0.0","960165","68","1","2026-06-08 14:06:08","segmentation_norming_randomized_order_maxrun_attention_v4","142.118.156.189","Mozilla/5.0 (Windows NT 10.0; Win64; x64) AppleWebKit/537.36 (KHTML, like Gecko) Chrome/149.0.0.0 Safari/537.36","WebKit","Chrome","149.0.0.0","Windows","10.0","https://uencdihehs.cognition.run/?PROLIFIC_PID=699f870f1185d9ba60a6e928&STUDY_ID=6a230fc25d128c9d1b56061a&STUDY_ID=6a230fc25d128c9d1b56061a&SESSION_ID=6a26cc1c8b7ff817bd9d90a3?PROLIFIC_PID=699f870f1185d9ba60a6e928&SESSION_ID=6a26cc1c8b7ff817bd9d90a3?","en-US,en;q=0.9","699f870f1185d9ba60a6e928","6a230fc25d128c9d1b56061a","6a26cc1c8b7ff817bd9d90a3?","699f870f1185d9ba60a6e928","6a230fc25d128c9d1b56061a","6a26cc1c8b7ff817bd9d90a3?","30","[16,19,14,30,15,13,24,28,25,21,4,20,7,5,22,1,10,17,18,11,3,23,29,9,12,8,26,2,27,6]","[""P16"",""U19"",""P14"",""U30"",""P15"",""P13"",""P24"",""U28"",""P25"",""U21"",""P4"",""U20"",""P7"",""U5"",""P22"",""P1"",""U10"",""P17"",""U18"",""P11"",""U3"",""U23"",""P29"",""U9"",""U12"",""P8"",""U26"",""U2"",""P27"",""U6""]","[""U16"",""P19"",""U14"",""P30"",""U15"",""U13"",""U24"",""P28"",""U25"",""P21"",""U4"",""P20"",""U7"",""P5"",""U22"",""U1"",""P10"",""U17"",""P18"",""U11"",""P3"",""P23"",""U29"",""P9"",""P12"",""U8"",""P26"",""P2"",""U27"",""P6""]","3","3","0","0","1","1","","null","[""music_v1.mp4""]","null","segmentation_video","","","","","","","","","music_v1.mp4","music","Predictable","[1.115703,3.748245,5.890214,7.500607,9.245342,11.049628,12.477466,14.855426,17.12033,19.877645,21.88262,23.265527,25.19236,27.225135,28.89596,30.827814,33.147786,34.655279,37.485342]","19","","P17","17","1","18","1.3829069999999994","false","false","false","","false","0","0","false","false","false","false",""
"","","","","","survey-multi-choice","87","2.0.0","967859","68","1","2026-06-08 14:06:08","segmentation_norming_randomized_order_maxrun_attention_v4","142.118.156.189","Mozilla/5.0 (Windows NT 10.0; Win64; x64) AppleWebKit/537.36 (KHTML, like Gecko) Chrome/149.0.0.0 Safari/537.36","WebKit","Chrome","149.0.0.0","Windows","10.0","https://uencdihehs.cognition.run/?PROLIFIC_PID=699f870f1185d9ba60a6e928&STUDY_ID=6a230fc25d128c9d1b56061a&STUDY_ID=6a230fc25d128c9d1b56061a&SESSION_ID=6a26cc1c8b7ff817bd9d90a3?PROLIFIC_PID=699f870f1185d9ba60a6e928&SESSION_ID=6a26cc1c8b7ff817bd9d90a3?","en-US,en;q=0.9","699f870f1185d9ba60a6e928","6a230fc25d128c9d1b56061a","6a26cc1c8b7ff817bd9d90a3?","699f870f1185d9ba60a6e928","6a230fc25d128c9d1b56061a","6a26cc1c8b7ff817bd9d90a3?","30","[16,19,14,30,15,13,24,28,25,21,4,20,7,5,22,1,10,17,18,11,3,23,29,9,12,8,26,2,27,6]","[""P16"",""U19"",""P14"",""U30"",""P15"",""P13"",""P24"",""U28"",""P25"",""U21"",""P4"",""U20"",""P7"",""U5"",""P22"",""P1"",""U10"",""P17"",""U18"",""P11"",""U3"",""U23"",""P29"",""U9"",""U12"",""P8"",""U26"",""U2"",""P27"",""U6""]","[""U16"",""P19"",""U14"",""P30"",""U15"",""U13"",""U24"",""P28"",""U25"",""P21"",""U4"",""P20"",""U7"",""P5"",""U22"",""U1"",""P10"",""U17"",""P18"",""U11"",""P3"",""P23"",""U29"",""P9"",""P12"",""U8"",""P26"",""P2"",""U27"",""P6""]","3","3","0","0","1","1","","7691","","{""confidence_rating"":""Very confident""}","confidence_question","[0]","","","","","","","","","music","Predictable","","","","P17","17","1","18","","","","","","","","","","","","","Very confident"
"","","","","","video-keyboard-response","88","2.0.0","992549","68","1","2026-06-08 14:06:08","segmentation_norming_randomized_order_maxrun_attention_v4","142.118.156.189","Mozilla/5.0 (Windows NT 10.0; Win64; x64) AppleWebKit/537.36 (KHTML, like Gecko) Chrome/149.0.0.0 Safari/537.36","WebKit","Chrome","149.0.0.0","Windows","10.0","https://uencdihehs.cognition.run/?PROLIFIC_PID=699f870f1185d9ba60a6e928&STUDY_ID=6a230fc25d128c9d1b56061a&STUDY_ID=6a230fc25d128c9d1b56061a&SESSION_ID=6a26cc1c8b7ff817bd9d90a3?PROLIFIC_PID=699f870f1185d9ba60a6e928&SESSION_ID=6a26cc1c8b7ff817bd9d90a3?","en-US,en;q=0.9","699f870f1185d9ba60a6e928","6a230fc25d128c9d1b56061a","6a26cc1c8b7ff817bd9d90a3?","699f870f1185d9ba60a6e928","6a230fc25d128c9d1b56061a","6a26cc1c8b7ff817bd9d90a3?","30","[16,19,14,30,15,13,24,28,25,21,4,20,7,5,22,1,10,17,18,11,3,23,29,9,12,8,26,2,27,6]","[""P16"",""U19"",""P14"",""U30"",""P15"",""P13"",""P24"",""U28"",""P25"",""U21"",""P4"",""U20"",""P7"",""U5"",""P22"",""P1"",""U10"",""P17"",""U18"",""P11"",""U3"",""U23"",""P29"",""U9"",""U12"",""P8"",""U26"",""U2"",""P27"",""U6""]","[""U16"",""P19"",""U14"",""P30"",""U15"",""U13"",""U24"",""P28"",""U25"",""P21"",""U4"",""P20"",""U7"",""P5"",""U22"",""U1"",""P10"",""U17"",""P18"",""U11"",""P3"",""P23"",""U29"",""P9"",""P12"",""U8"",""P26"",""P2"",""U27"",""P6""]","3","3","0","0","1","1","","null","[""painting_v2.mp4""]","null","segmentation_video","","","","","","","","","painting_v2.mp4","painting","Unpredictable","[1.483578,3.753272,5.657225,7.586199,9.770794,11.404881,12.759558,14.656306,16.428684,18.191427,19.945335,21.304759,22.554479,23.621183]","14","","U18","18","1","19","1.0667039999999979","false","false","false","","false","0","0","false","false","false","false",""
"","","","","","survey-multi-choice","91","2.0.0","995576","68","1","2026-06-08 14:06:08","segmentation_norming_randomized_order_maxrun_attention_v4","142.118.156.189","Mozilla/5.0 (Windows NT 10.0; Win64; x64) AppleWebKit/537.36 (KHTML, like Gecko) Chrome/149.0.0.0 Safari/537.36","WebKit","Chrome","149.0.0.0","Windows","10.0","https://uencdihehs.cognition.run/?PROLIFIC_PID=699f870f1185d9ba60a6e928&STUDY_ID=6a230fc25d128c9d1b56061a&STUDY_ID=6a230fc25d128c9d1b56061a&SESSION_ID=6a26cc1c8b7ff817bd9d90a3?PROLIFIC_PID=699f870f1185d9ba60a6e928&SESSION_ID=6a26cc1c8b7ff817bd9d90a3?","en-US,en;q=0.9","699f870f1185d9ba60a6e928","6a230fc25d128c9d1b56061a","6a26cc1c8b7ff817bd9d90a3?","699f870f1185d9ba60a6e928","6a230fc25d128c9d1b56061a","6a26cc1c8b7ff817bd9d90a3?","30","[16,19,14,30,15,13,24,28,25,21,4,20,7,5,22,1,10,17,18,11,3,23,29,9,12,8,26,2,27,6]","[""P16"",""U19"",""P14"",""U30"",""P15"",""P13"",""P24"",""U28"",""P25"",""U21"",""P4"",""U20"",""P7"",""U5"",""P22"",""P1"",""U10"",""P17"",""U18"",""P11"",""U3"",""U23"",""P29"",""U9"",""U12"",""P8"",""U26"",""U2"",""P27"",""U6""]","[""U16"",""P19"",""U14"",""P30"",""U15"",""U13"",""U24"",""P28"",""U25"",""P21"",""U4"",""P20"",""U7"",""P5"",""U22"",""U1"",""P10"",""U17"",""P18"",""U11"",""P3"",""P23"",""U29"",""P9"",""P12"",""U8"",""P26"",""P2"",""U27"",""P6""]","3","3","0","0","1","1","","3023","","{""confidence_rating"":""Very confident""}","confidence_question","[0]","","","","","","","","","painting","Unpredictable","","","","U18","18","1","19","","","","","","","","","","","","","Very confident"
"","","","","","video-keyboard-response","92","2.0.0","1026708","68","1","2026-06-08 14:06:08","segmentation_norming_randomized_order_maxrun_attention_v4","142.118.156.189","Mozilla/5.0 (Windows NT 10.0; Win64; x64) AppleWebKit/537.36 (KHTML, like Gecko) Chrome/149.0.0.0 Safari/537.36","WebKit","Chrome","149.0.0.0","Windows","10.0","https://uencdihehs.cognition.run/?PROLIFIC_PID=699f870f1185d9ba60a6e928&STUDY_ID=6a230fc25d128c9d1b56061a&STUDY_ID=6a230fc25d128c9d1b56061a&SESSION_ID=6a26cc1c8b7ff817bd9d90a3?PROLIFIC_PID=699f870f1185d9ba60a6e928&SESSION_ID=6a26cc1c8b7ff817bd9d90a3?","en-US,en;q=0.9","699f870f1185d9ba60a6e928","6a230fc25d128c9d1b56061a","6a26cc1c8b7ff817bd9d90a3?","699f870f1185d9ba60a6e928","6a230fc25d128c9d1b56061a","6a26cc1c8b7ff817bd9d90a3?","30","[16,19,14,30,15,13,24,28,25,21,4,20,7,5,22,1,10,17,18,11,3,23,29,9,12,8,26,2,27,6]","[""P16"",""U19"",""P14"",""U30"",""P15"",""P13"",""P24"",""U28"",""P25"",""U21"",""P4"",""U20"",""P7"",""U5"",""P22"",""P1"",""U10"",""P17"",""U18"",""P11"",""U3"",""U23"",""P29"",""U9"",""U12"",""P8"",""U26"",""U2"",""P27"",""U6""]","[""U16"",""P19"",""U14"",""P30"",""U15"",""U13"",""U24"",""P28"",""U25"",""P21"",""U4"",""P20"",""U7"",""P5"",""U22"",""U1"",""P10"",""U17"",""P18"",""U11"",""P3"",""P23"",""U29"",""P9"",""P12"",""U8"",""P26"",""P2"",""U27"",""P6""]","3","3","0","0","1","1","","null","[""fireplace_v1.mp4""]","null","segmentation_video","","","","","","","","","fireplace_v1.mp4","fireplace","Predictable","[0.746285,2.200905,3.250844,5.654261,8.671895,10.467998,12.018625,14.384519,16.078283,17.637798,19.184643,21.466125,22.81681,24.427077,26.467796,28.452026,30.068397]","17","","P11","11","1","20","1.0499389999999997","false","false","false","","false","0","0","false","false","false","false",""
"","","","","","survey-multi-choice","95","2.0.0","1033717","68","1","2026-06-08 14:06:08","segmentation_norming_randomized_order_maxrun_attention_v4","142.118.156.189","Mozilla/5.0 (Windows NT 10.0; Win64; x64) AppleWebKit/537.36 (KHTML, like Gecko) Chrome/149.0.0.0 Safari/537.36","WebKit","Chrome","149.0.0.0","Windows","10.0","https://uencdihehs.cognition.run/?PROLIFIC_PID=699f870f1185d9ba60a6e928&STUDY_ID=6a230fc25d128c9d1b56061a&STUDY_ID=6a230fc25d128c9d1b56061a&SESSION_ID=6a26cc1c8b7ff817bd9d90a3?PROLIFIC_PID=699f870f1185d9ba60a6e928&SESSION_ID=6a26cc1c8b7ff817bd9d90a3?","en-US,en;q=0.9","699f870f1185d9ba60a6e928","6a230fc25d128c9d1b56061a","6a26cc1c8b7ff817bd9d90a3?","699f870f1185d9ba60a6e928","6a230fc25d128c9d1b56061a","6a26cc1c8b7ff817bd9d90a3?","30","[16,19,14,30,15,13,24,28,25,21,4,20,7,5,22,1,10,17,18,11,3,23,29,9,12,8,26,2,27,6]","[""P16"",""U19"",""P14"",""U30"",""P15"",""P13"",""P24"",""U28"",""P25"",""U21"",""P4"",""U20"",""P7"",""U5"",""P22"",""P1"",""U10"",""P17"",""U18"",""P11"",""U3"",""U23"",""P29"",""U9"",""U12"",""P8"",""U26"",""U2"",""P27"",""U6""]","[""U16"",""P19"",""U14"",""P30"",""U15"",""U13"",""U24"",""P28"",""U25"",""P21"",""U4"",""P20"",""U7"",""P5"",""U22"",""U1"",""P10"",""U17"",""P18"",""U11"",""P3"",""P23"",""U29"",""P9"",""P12"",""U8"",""P26"",""P2"",""U27"",""P6""]","3","3","0","0","1","1","","7007","","{""confidence_rating"":""Very confident""}","confidence_question","[0]","","","","","","","","","fireplace","Predictable","","","","P11","11","1","20","","","","","","","","","","","","","Very confident"
"","","","","","video-keyboard-response","96","2.0.0","1052968","68","1","2026-06-08 14:06:08","segmentation_norming_randomized_order_maxrun_attention_v4","142.118.156.189","Mozilla/5.0 (Windows NT 10.0; Win64; x64) AppleWebKit/537.36 (KHTML, like Gecko) Chrome/149.0.0.0 Safari/537.36","WebKit","Chrome","149.0.0.0","Windows","10.0","https://uencdihehs.cognition.run/?PROLIFIC_PID=699f870f1185d9ba60a6e928&STUDY_ID=6a230fc25d128c9d1b56061a&STUDY_ID=6a230fc25d128c9d1b56061a&SESSION_ID=6a26cc1c8b7ff817bd9d90a3?PROLIFIC_PID=699f870f1185d9ba60a6e928&SESSION_ID=6a26cc1c8b7ff817bd9d90a3?","en-US,en;q=0.9","699f870f1185d9ba60a6e928","6a230fc25d128c9d1b56061a","6a26cc1c8b7ff817bd9d90a3?","699f870f1185d9ba60a6e928","6a230fc25d128c9d1b56061a","6a26cc1c8b7ff817bd9d90a3?","30","[16,19,14,30,15,13,24,28,25,21,4,20,7,5,22,1,10,17,18,11,3,23,29,9,12,8,26,2,27,6]","[""P16"",""U19"",""P14"",""U30"",""P15"",""P13"",""P24"",""U28"",""P25"",""U21"",""P4"",""U20"",""P7"",""U5"",""P22"",""P1"",""U10"",""P17"",""U18"",""P11"",""U3"",""U23"",""P29"",""U9"",""U12"",""P8"",""U26"",""U2"",""P27"",""U6""]","[""U16"",""P19"",""U14"",""P30"",""U15"",""U13"",""U24"",""P28"",""U25"",""P21"",""U4"",""P20"",""U7"",""P5"",""U22"",""U1"",""P10"",""U17"",""P18"",""U11"",""P3"",""P23"",""U29"",""P9"",""P12"",""U8"",""P26"",""P2"",""U27"",""P6""]","3","3","0","0","1","1","","null","[""bank_v2.mp4""]","null","segmentation_video","","","","","","","","","bank_v2.mp4","bank","Unpredictable","[1.39344,2.444108,4.064054,6.093588,7.854444,10.00482,11.625203,13.043919,15.176311,16.93565,18.777158]","11","","U3","3","1","21","1.050668","false","false","false","","false","0","0","false","false","false","false",""
"","","","","","survey-multi-choice","99","2.0.0","1056137","68","1","2026-06-08 14:06:08","segmentation_norming_randomized_order_maxrun_attention_v4","142.118.156.189","Mozilla/5.0 (Windows NT 10.0; Win64; x64) AppleWebKit/537.36 (KHTML, like Gecko) Chrome/149.0.0.0 Safari/537.36","WebKit","Chrome","149.0.0.0","Windows","10.0","https://uencdihehs.cognition.run/?PROLIFIC_PID=699f870f1185d9ba60a6e928&STUDY_ID=6a230fc25d128c9d1b56061a&STUDY_ID=6a230fc25d128c9d1b56061a&SESSION_ID=6a26cc1c8b7ff817bd9d90a3?PROLIFIC_PID=699f870f1185d9ba60a6e928&SESSION_ID=6a26cc1c8b7ff817bd9d90a3?","en-US,en;q=0.9","699f870f1185d9ba60a6e928","6a230fc25d128c9d1b56061a","6a26cc1c8b7ff817bd9d90a3?","699f870f1185d9ba60a6e928","6a230fc25d128c9d1b56061a","6a26cc1c8b7ff817bd9d90a3?","30","[16,19,14,30,15,13,24,28,25,21,4,20,7,5,22,1,10,17,18,11,3,23,29,9,12,8,26,2,27,6]","[""P16"",""U19"",""P14"",""U30"",""P15"",""P13"",""P24"",""U28"",""P25"",""U21"",""P4"",""U20"",""P7"",""U5"",""P22"",""P1"",""U10"",""P17"",""U18"",""P11"",""U3"",""U23"",""P29"",""U9"",""U12"",""P8"",""U26"",""U2"",""P27"",""U6""]","[""U16"",""P19"",""U14"",""P30"",""U15"",""U13"",""U24"",""P28"",""U25"",""P21"",""U4"",""P20"",""U7"",""P5"",""U22"",""U1"",""P10"",""U17"",""P18"",""U11"",""P3"",""P23"",""U29"",""P9"",""P12"",""U8"",""P26"",""P2"",""U27"",""P6""]","3","3","0","0","1","1","","3166","","{""confidence_rating"":""Very confident""}","confidence_question","[0]","","","","","","","","","bank","Unpredictable","","","","U3","3","1","21","","","","","","","","","","","","","Very confident"
"","","","","","video-keyboard-response","100","2.0.0","1068047","68","1","2026-06-08 14:06:08","segmentation_norming_randomized_order_maxrun_attention_v4","142.118.156.189","Mozilla/5.0 (Windows NT 10.0; Win64; x64) AppleWebKit/537.36 (KHTML, like Gecko) Chrome/149.0.0.0 Safari/537.36","WebKit","Chrome","149.0.0.0","Windows","10.0","https://uencdihehs.cognition.run/?PROLIFIC_PID=699f870f1185d9ba60a6e928&STUDY_ID=6a230fc25d128c9d1b56061a&STUDY_ID=6a230fc25d128c9d1b56061a&SESSION_ID=6a26cc1c8b7ff817bd9d90a3?PROLIFIC_PID=699f870f1185d9ba60a6e928&SESSION_ID=6a26cc1c8b7ff817bd9d90a3?","en-US,en;q=0.9","699f870f1185d9ba60a6e928","6a230fc25d128c9d1b56061a","6a26cc1c8b7ff817bd9d90a3?","699f870f1185d9ba60a6e928","6a230fc25d128c9d1b56061a","6a26cc1c8b7ff817bd9d90a3?","30","[16,19,14,30,15,13,24,28,25,21,4,20,7,5,22,1,10,17,18,11,3,23,29,9,12,8,26,2,27,6]","[""P16"",""U19"",""P14"",""U30"",""P15"",""P13"",""P24"",""U28"",""P25"",""U21"",""P4"",""U20"",""P7"",""U5"",""P22"",""P1"",""U10"",""P17"",""U18"",""P11"",""U3"",""U23"",""P29"",""U9"",""U12"",""P8"",""U26"",""U2"",""P27"",""U6""]","[""U16"",""P19"",""U14"",""P30"",""U15"",""U13"",""U24"",""P28"",""U25"",""P21"",""U4"",""P20"",""U7"",""P5"",""U22"",""U1"",""P10"",""U17"",""P18"",""U11"",""P3"",""P23"",""U29"",""P9"",""P12"",""U8"",""P26"",""P2"",""U27"",""P6""]","3","3","0","0","1","1","","null","[""shopping_v2.mp4""]","null","segmentation_video","","","","","","","","","shopping_v2.mp4","shopping","Unpredictable","[0.651088,1.937237,3.208549,4.287555,7.205338,9.080596,11.40042]","7","","U23","23","1","22","1.0790060000000001","false","false","false","","false","0","0","false","false","false","false",""
"","","","","","survey-multi-choice","103","2.0.0","1073548","68","1","2026-06-08 14:06:08","segmentation_norming_randomized_order_maxrun_attention_v4","142.118.156.189","Mozilla/5.0 (Windows NT 10.0; Win64; x64) AppleWebKit/537.36 (KHTML, like Gecko) Chrome/149.0.0.0 Safari/537.36","WebKit","Chrome","149.0.0.0","Windows","10.0","https://uencdihehs.cognition.run/?PROLIFIC_PID=699f870f1185d9ba60a6e928&STUDY_ID=6a230fc25d128c9d1b56061a&STUDY_ID=6a230fc25d128c9d1b56061a&SESSION_ID=6a26cc1c8b7ff817bd9d90a3?PROLIFIC_PID=699f870f1185d9ba60a6e928&SESSION_ID=6a26cc1c8b7ff817bd9d90a3?","en-US,en;q=0.9","699f870f1185d9ba60a6e928","6a230fc25d128c9d1b56061a","6a26cc1c8b7ff817bd9d90a3?","699f870f1185d9ba60a6e928","6a230fc25d128c9d1b56061a","6a26cc1c8b7ff817bd9d90a3?","30","[16,19,14,30,15,13,24,28,25,21,4,20,7,5,22,1,10,17,18,11,3,23,29,9,12,8,26,2,27,6]","[""P16"",""U19"",""P14"",""U30"",""P15"",""P13"",""P24"",""U28"",""P25"",""U21"",""P4"",""U20"",""P7"",""U5"",""P22"",""P1"",""U10"",""P17"",""U18"",""P11"",""U3"",""U23"",""P29"",""U9"",""U12"",""P8"",""U26"",""U2"",""P27"",""U6""]","[""U16"",""P19"",""U14"",""P30"",""U15"",""U13"",""U24"",""P28"",""U25"",""P21"",""U4"",""P20"",""U7"",""P5"",""U22"",""U1"",""P10"",""U17"",""P18"",""U11"",""P3"",""P23"",""U29"",""P9"",""P12"",""U8"",""P26"",""P2"",""U27"",""P6""]","3","3","0","0","1","1","","5499","","{""confidence_rating"":""Very confident""}","confidence_question","[0]","","","","","","","","","shopping","Unpredictable","","","","U23","23","1","22","","","","","","","","","","","","","Very confident"
