"success","timeout","failed_images","failed_audio","failed_video","trial_type","trial_index","plugin_version","time_elapsed","run_id","condition","recorded_at","source_code_version","ip","user_agent","device","browser","browser_version","platform","platform_version","referer","accept_language","PROLIFIC_PID","STUDY_ID","SESSION_ID","subject_id","study_id","session_id","pair_count","randomized_pair_order","block1_codes","block2_codes","max_run_block1","max_run_block2","fullscreen_exit_count","tab_switch_count","video_attention_failure_count","total_attention_violation_count","view_history","rt","stimulus","response","trial_kind","question_order","spacebar_question_answer","attention_question_answer","spacebar_question_correct","attention_question_correct","instruction_check_passed","demo_index","demo_code","stimulus_file","stimulus_name","predictability","boundary_times_sec","boundary_count","value","video_code","pair_number","block","global_position_in_block","min_press_gap_sec","no_press_failure","rapid_press_failure","video_attention_failed","video_attention_failure_type","last_video_had_any_attention_violation","current_video_fullscreen_exit_count","current_video_tab_switch_count","current_video_had_fullscreen_exit","current_video_had_tab_switch","current_video_had_video_attention_failure","skipped_video_debug","confidence_rating"
"true","false","[]","[]","[]","preload","0","2.0.0","14340","85","1","2026-06-08 18:49:28","segmentation_norming_randomized_order_maxrun_attention_v4","146.198.38.80","Mozilla/5.0 (Windows NT 10.0; Win64; x64) AppleWebKit/537.36 (KHTML, like Gecko) Chrome/148.0.0.0 Safari/537.36","WebKit","Chrome","148.0.0.0","Windows","10.0","https://uencdihehs.cognition.run/?PROLIFIC_PID=6a0ecfa37f0d9711b810596e&STUDY_ID=6a270c2e609d6ae583c06396&STUDY_ID=6a270c2e609d6ae583c06396&SESSION_ID=6a270e5287df46a191507a1a?PROLIFIC_PID=6a0ecfa37f0d9711b810596e&SESSION_ID=6a270e5287df46a191507a1a?","en-GB,en;q=0.9","6a0ecfa37f0d9711b810596e","6a270c2e609d6ae583c06396","6a270e5287df46a191507a1a?","6a0ecfa37f0d9711b810596e","6a270c2e609d6ae583c06396","6a270e5287df46a191507a1a?","30","[15,30,21,18,22,12,29,27,3,24,4,6,9,2,1,16,8,11,17,13,23,10,26,14,5,25,20,19,7,28]","[""U15"",""U30"",""P21"",""P18"",""P22"",""U12"",""P29"",""U27"",""U3"",""P24"",""P4"",""U6"",""P9"",""P2"",""P1"",""U16"",""P8"",""P11"",""P17"",""U13"",""P23"",""U10"",""P26"",""P14"",""U5"",""U25"",""P20"",""P19"",""P7"",""P28""]","[""P15"",""P30"",""U21"",""U18"",""U22"",""P12"",""U29"",""P27"",""P3"",""U24"",""U4"",""P6"",""U9"",""U2"",""U1"",""P16"",""U8"",""U11"",""U17"",""P13"",""U23"",""P10"",""U26"",""U14"",""P5"",""P25"",""U20"",""U19"",""U7"",""U28""]","4","4","0","0","1","1","","","","","","","","","","","","","","","","","","","","","","","","","","","","","","","","","","","",""
"","","","","","instructions","1","2.0.0","18200","85","1","2026-06-08 18:49:28","segmentation_norming_randomized_order_maxrun_attention_v4","146.198.38.80","Mozilla/5.0 (Windows NT 10.0; Win64; x64) AppleWebKit/537.36 (KHTML, like Gecko) Chrome/148.0.0.0 Safari/537.36","WebKit","Chrome","148.0.0.0","Windows","10.0","https://uencdihehs.cognition.run/?PROLIFIC_PID=6a0ecfa37f0d9711b810596e&STUDY_ID=6a270c2e609d6ae583c06396&STUDY_ID=6a270c2e609d6ae583c06396&SESSION_ID=6a270e5287df46a191507a1a?PROLIFIC_PID=6a0ecfa37f0d9711b810596e&SESSION_ID=6a270e5287df46a191507a1a?","en-GB,en;q=0.9","6a0ecfa37f0d9711b810596e","6a270c2e609d6ae583c06396","6a270e5287df46a191507a1a?","6a0ecfa37f0d9711b810596e","6a270c2e609d6ae583c06396","6a270e5287df46a191507a1a?","30","[15,30,21,18,22,12,29,27,3,24,4,6,9,2,1,16,8,11,17,13,23,10,26,14,5,25,20,19,7,28]","[""U15"",""U30"",""P21"",""P18"",""P22"",""U12"",""P29"",""U27"",""U3"",""P24"",""P4"",""U6"",""P9"",""P2"",""P1"",""U16"",""P8"",""P11"",""P17"",""U13"",""P23"",""U10"",""P26"",""P14"",""U5"",""U25"",""P20"",""P19"",""P7"",""P28""]","[""P15"",""P30"",""U21"",""U18"",""U22"",""P12"",""U29"",""P27"",""P3"",""U24"",""U4"",""P6"",""U9"",""U2"",""U1"",""P16"",""U8"",""U11"",""U17"",""P13"",""U23"",""P10"",""U26"",""U14"",""P5"",""P25"",""U20"",""U19"",""U7"",""U28""]","4","4","0","0","1","1","[{""page_index"":0,""viewing_time"":3858}]","3858","","","","","","","","","","","","","","","","","","","","","","","","","","","","","","","","","",""
"true","","","","","fullscreen","2","2.0.0","22447","85","1","2026-06-08 18:49:28","segmentation_norming_randomized_order_maxrun_attention_v4","146.198.38.80","Mozilla/5.0 (Windows NT 10.0; Win64; x64) AppleWebKit/537.36 (KHTML, like Gecko) Chrome/148.0.0.0 Safari/537.36","WebKit","Chrome","148.0.0.0","Windows","10.0","https://uencdihehs.cognition.run/?PROLIFIC_PID=6a0ecfa37f0d9711b810596e&STUDY_ID=6a270c2e609d6ae583c06396&STUDY_ID=6a270c2e609d6ae583c06396&SESSION_ID=6a270e5287df46a191507a1a?PROLIFIC_PID=6a0ecfa37f0d9711b810596e&SESSION_ID=6a270e5287df46a191507a1a?","en-GB,en;q=0.9","6a0ecfa37f0d9711b810596e","6a270c2e609d6ae583c06396","6a270e5287df46a191507a1a?","6a0ecfa37f0d9711b810596e","6a270c2e609d6ae583c06396","6a270e5287df46a191507a1a?","30","[15,30,21,18,22,12,29,27,3,24,4,6,9,2,1,16,8,11,17,13,23,10,26,14,5,25,20,19,7,28]","[""U15"",""U30"",""P21"",""P18"",""P22"",""U12"",""P29"",""U27"",""U3"",""P24"",""P4"",""U6"",""P9"",""P2"",""P1"",""U16"",""P8"",""P11"",""P17"",""U13"",""P23"",""U10"",""P26"",""P14"",""U5"",""U25"",""P20"",""P19"",""P7"",""P28""]","[""P15"",""P30"",""U21"",""U18"",""U22"",""P12"",""U29"",""P27"",""P3"",""U24"",""U4"",""P6"",""U9"",""U2"",""U1"",""P16"",""U8"",""U11"",""U17"",""P13"",""U23"",""P10"",""U26"",""U14"",""P5"",""P25"",""U20"",""U19"",""U7"",""U28""]","4","4","0","0","1","1","","3238","","","","","","","","","","","","","","","","","","","","","","","","","","","","","","","","","",""
"","","","","","html-button-response","3","2.0.0","31837","85","1","2026-06-08 18:49:28","segmentation_norming_randomized_order_maxrun_attention_v4","146.198.38.80","Mozilla/5.0 (Windows NT 10.0; Win64; x64) AppleWebKit/537.36 (KHTML, like Gecko) Chrome/148.0.0.0 Safari/537.36","WebKit","Chrome","148.0.0.0","Windows","10.0","https://uencdihehs.cognition.run/?PROLIFIC_PID=6a0ecfa37f0d9711b810596e&STUDY_ID=6a270c2e609d6ae583c06396&STUDY_ID=6a270c2e609d6ae583c06396&SESSION_ID=6a270e5287df46a191507a1a?PROLIFIC_PID=6a0ecfa37f0d9711b810596e&SESSION_ID=6a270e5287df46a191507a1a?","en-GB,en;q=0.9","6a0ecfa37f0d9711b810596e","6a270c2e609d6ae583c06396","6a270e5287df46a191507a1a?","6a0ecfa37f0d9711b810596e","6a270c2e609d6ae583c06396","6a270e5287df46a191507a1a?","30","[15,30,21,18,22,12,29,27,3,24,4,6,9,2,1,16,8,11,17,13,23,10,26,14,5,25,20,19,7,28]","[""U15"",""U30"",""P21"",""P18"",""P22"",""U12"",""P29"",""U27"",""U3"",""P24"",""P4"",""U6"",""P9"",""P2"",""P1"",""U16"",""P8"",""P11"",""P17"",""U13"",""P23"",""U10"",""P26"",""P14"",""U5"",""U25"",""P20"",""P19"",""P7"",""P28""]","[""P15"",""P30"",""U21"",""U18"",""U22"",""P12"",""U29"",""P27"",""P3"",""U24"",""U4"",""P6"",""U9"",""U2"",""U1"",""P16"",""U8"",""U11"",""U17"",""P13"",""U23"",""P10"",""U26"",""U14"",""P5"",""P25"",""U20"",""U19"",""U7"",""U28""]","4","4","0","0","1","1","","9388","The experiment requires continuous attention and full-screen participation throughout the task.<br><br>You may be asked to exit the experiment and cancel your participation if you exit Full Screen Mode, switch tabs, or fail to meet the attention criteria more than the allowed number of times.<br><br>Please read the following instructions carefully.","0","","","","","","","","","","","","","","","","","","","","","","","","","","","","","","","",""
"","","","","","instructions","4","2.0.0","57440","85","1","2026-06-08 18:49:28","segmentation_norming_randomized_order_maxrun_attention_v4","146.198.38.80","Mozilla/5.0 (Windows NT 10.0; Win64; x64) AppleWebKit/537.36 (KHTML, like Gecko) Chrome/148.0.0.0 Safari/537.36","WebKit","Chrome","148.0.0.0","Windows","10.0","https://uencdihehs.cognition.run/?PROLIFIC_PID=6a0ecfa37f0d9711b810596e&STUDY_ID=6a270c2e609d6ae583c06396&STUDY_ID=6a270c2e609d6ae583c06396&SESSION_ID=6a270e5287df46a191507a1a?PROLIFIC_PID=6a0ecfa37f0d9711b810596e&SESSION_ID=6a270e5287df46a191507a1a?","en-GB,en;q=0.9","6a0ecfa37f0d9711b810596e","6a270c2e609d6ae583c06396","6a270e5287df46a191507a1a?","6a0ecfa37f0d9711b810596e","6a270c2e609d6ae583c06396","6a270e5287df46a191507a1a?","30","[15,30,21,18,22,12,29,27,3,24,4,6,9,2,1,16,8,11,17,13,23,10,26,14,5,25,20,19,7,28]","[""U15"",""U30"",""P21"",""P18"",""P22"",""U12"",""P29"",""U27"",""U3"",""P24"",""P4"",""U6"",""P9"",""P2"",""P1"",""U16"",""P8"",""P11"",""P17"",""U13"",""P23"",""U10"",""P26"",""P14"",""U5"",""U25"",""P20"",""P19"",""P7"",""P28""]","[""P15"",""P30"",""U21"",""U18"",""U22"",""P12"",""U29"",""P27"",""P3"",""U24"",""U4"",""P6"",""U9"",""U2"",""U1"",""P16"",""U8"",""U11"",""U17"",""P13"",""U23"",""P10"",""U26"",""U14"",""P5"",""P25"",""U20"",""U19"",""U7"",""U28""]","4","4","0","0","1","1","[{""page_index"":0,""viewing_time"":25601}]","25601","","","","","","","","","","","","","","","","","","","","","","","","","","","","","","","","","",""
"","","","","","html-button-response","5","2.0.0","69554","85","1","2026-06-08 18:49:28","segmentation_norming_randomized_order_maxrun_attention_v4","146.198.38.80","Mozilla/5.0 (Windows NT 10.0; Win64; x64) AppleWebKit/537.36 (KHTML, like Gecko) Chrome/148.0.0.0 Safari/537.36","WebKit","Chrome","148.0.0.0","Windows","10.0","https://uencdihehs.cognition.run/?PROLIFIC_PID=6a0ecfa37f0d9711b810596e&STUDY_ID=6a270c2e609d6ae583c06396&STUDY_ID=6a270c2e609d6ae583c06396&SESSION_ID=6a270e5287df46a191507a1a?PROLIFIC_PID=6a0ecfa37f0d9711b810596e&SESSION_ID=6a270e5287df46a191507a1a?","en-GB,en;q=0.9","6a0ecfa37f0d9711b810596e","6a270c2e609d6ae583c06396","6a270e5287df46a191507a1a?","6a0ecfa37f0d9711b810596e","6a270c2e609d6ae583c06396","6a270e5287df46a191507a1a?","30","[15,30,21,18,22,12,29,27,3,24,4,6,9,2,1,16,8,11,17,13,23,10,26,14,5,25,20,19,7,28]","[""U15"",""U30"",""P21"",""P18"",""P22"",""U12"",""P29"",""U27"",""U3"",""P24"",""P4"",""U6"",""P9"",""P2"",""P1"",""U16"",""P8"",""P11"",""P17"",""U13"",""P23"",""U10"",""P26"",""P14"",""U5"",""U25"",""P20"",""P19"",""P7"",""P28""]","[""P15"",""P30"",""U21"",""U18"",""U22"",""P12"",""U29"",""P27"",""P3"",""U24"",""U4"",""P6"",""U9"",""U2"",""U1"",""P16"",""U8"",""U11"",""U17"",""P13"",""U23"",""P10"",""U26"",""U14"",""P5"",""P25"",""U20"",""U19"",""U7"",""U28""]","4","4","0","0","1","1","","12112","Please pay attention when watching videos and marking boundaries.<br><br>There are several hidden attention criteria to make sure you watch the videos carefully.<br><br>If you fail these hidden criteria more than the allowed number of times, you may be asked to exit the experiment.","0","","","","","","","","","","","","","","","","","","","","","","","","","","","","","","","",""
"","","","","","survey-multi-choice","6","2.0.0","90102","85","1","2026-06-08 18:49:28","segmentation_norming_randomized_order_maxrun_attention_v4","146.198.38.80","Mozilla/5.0 (Windows NT 10.0; Win64; x64) AppleWebKit/537.36 (KHTML, like Gecko) Chrome/148.0.0.0 Safari/537.36","WebKit","Chrome","148.0.0.0","Windows","10.0","https://uencdihehs.cognition.run/?PROLIFIC_PID=6a0ecfa37f0d9711b810596e&STUDY_ID=6a270c2e609d6ae583c06396&STUDY_ID=6a270c2e609d6ae583c06396&SESSION_ID=6a270e5287df46a191507a1a?PROLIFIC_PID=6a0ecfa37f0d9711b810596e&SESSION_ID=6a270e5287df46a191507a1a?","en-GB,en;q=0.9","6a0ecfa37f0d9711b810596e","6a270c2e609d6ae583c06396","6a270e5287df46a191507a1a?","6a0ecfa37f0d9711b810596e","6a270c2e609d6ae583c06396","6a270e5287df46a191507a1a?","30","[15,30,21,18,22,12,29,27,3,24,4,6,9,2,1,16,8,11,17,13,23,10,26,14,5,25,20,19,7,28]","[""U15"",""U30"",""P21"",""P18"",""P22"",""U12"",""P29"",""U27"",""U3"",""P24"",""P4"",""U6"",""P9"",""P2"",""P1"",""U16"",""P8"",""P11"",""P17"",""U13"",""P23"",""U10"",""P26"",""P14"",""U5"",""U25"",""P20"",""P19"",""P7"",""P28""]","[""P15"",""P30"",""U21"",""U18"",""U22"",""P12"",""U29"",""P27"",""P3"",""U24"",""U4"",""P6"",""U9"",""U2"",""U1"",""P16"",""U8"",""U11"",""U17"",""P13"",""U23"",""P10"",""U26"",""U14"",""P5"",""P25"",""U20"",""U19"",""U7"",""U28""]","4","4","0","0","1","1","","20543","","{""spacebar_question"":""Between the smallest meaningful events or actions"",""attention_question"":""Press space bar to segment the video""}","comprehension_check","[0,1]","Between the smallest meaningful events or actions","Press space bar to segment the video","true","true","true","","","","","","","","","","","","","","","","","","","","","","","","",""
"","","","","","html-button-response","8","2.0.0","99294","85","1","2026-06-08 18:49:28","segmentation_norming_randomized_order_maxrun_attention_v4","146.198.38.80","Mozilla/5.0 (Windows NT 10.0; Win64; x64) AppleWebKit/537.36 (KHTML, like Gecko) Chrome/148.0.0.0 Safari/537.36","WebKit","Chrome","148.0.0.0","Windows","10.0","https://uencdihehs.cognition.run/?PROLIFIC_PID=6a0ecfa37f0d9711b810596e&STUDY_ID=6a270c2e609d6ae583c06396&STUDY_ID=6a270c2e609d6ae583c06396&SESSION_ID=6a270e5287df46a191507a1a?PROLIFIC_PID=6a0ecfa37f0d9711b810596e&SESSION_ID=6a270e5287df46a191507a1a?","en-GB,en;q=0.9","6a0ecfa37f0d9711b810596e","6a270c2e609d6ae583c06396","6a270e5287df46a191507a1a?","6a0ecfa37f0d9711b810596e","6a270c2e609d6ae583c06396","6a270e5287df46a191507a1a?","30","[15,30,21,18,22,12,29,27,3,24,4,6,9,2,1,16,8,11,17,13,23,10,26,14,5,25,20,19,7,28]","[""U15"",""U30"",""P21"",""P18"",""P22"",""U12"",""P29"",""U27"",""U3"",""P24"",""P4"",""U6"",""P9"",""P2"",""P1"",""U16"",""P8"",""P11"",""P17"",""U13"",""P23"",""U10"",""P26"",""P14"",""U5"",""U25"",""P20"",""P19"",""P7"",""P28""]","[""P15"",""P30"",""U21"",""U18"",""U22"",""P12"",""U29"",""P27"",""P3"",""U24"",""U4"",""P6"",""U9"",""U2"",""U1"",""P16"",""U8"",""U11"",""U17"",""P13"",""U23"",""P10"",""U26"",""U14"",""P5"",""P25"",""U20"",""U19"",""U7"",""U28""]","4","4","0","0","1","1","","9189","You have learned the instructions for the task! Here is a demo trial.<br><br>Like what you will do in the main experiment,<br><br> you will watch a movie clip and at the same time mark off the activity in the movie into the <strong>smallest meaningful units</strong> that seem natural and meaningful to you.<br><br>Remember, tap the <strong>SPACE BAR</strong> to mark off a boundary between two <strong>smallest meaningful units</strong> of activity.<br><br>A green bar will appear at the bottom of the screen when you press the button.<br><br>","0","","","","","","","","","","","","","","","","","","","","","","","","","","","","","","","",""
"","","","","","video-keyboard-response","9","2.0.0","116483","85","1","2026-06-08 18:49:28","segmentation_norming_randomized_order_maxrun_attention_v4","146.198.38.80","Mozilla/5.0 (Windows NT 10.0; Win64; x64) AppleWebKit/537.36 (KHTML, like Gecko) Chrome/148.0.0.0 Safari/537.36","WebKit","Chrome","148.0.0.0","Windows","10.0","https://uencdihehs.cognition.run/?PROLIFIC_PID=6a0ecfa37f0d9711b810596e&STUDY_ID=6a270c2e609d6ae583c06396&STUDY_ID=6a270c2e609d6ae583c06396&SESSION_ID=6a270e5287df46a191507a1a?PROLIFIC_PID=6a0ecfa37f0d9711b810596e&SESSION_ID=6a270e5287df46a191507a1a?","en-GB,en;q=0.9","6a0ecfa37f0d9711b810596e","6a270c2e609d6ae583c06396","6a270e5287df46a191507a1a?","6a0ecfa37f0d9711b810596e","6a270c2e609d6ae583c06396","6a270e5287df46a191507a1a?","30","[15,30,21,18,22,12,29,27,3,24,4,6,9,2,1,16,8,11,17,13,23,10,26,14,5,25,20,19,7,28]","[""U15"",""U30"",""P21"",""P18"",""P22"",""U12"",""P29"",""U27"",""U3"",""P24"",""P4"",""U6"",""P9"",""P2"",""P1"",""U16"",""P8"",""P11"",""P17"",""U13"",""P23"",""U10"",""P26"",""P14"",""U5"",""U25"",""P20"",""P19"",""P7"",""P28""]","[""P15"",""P30"",""U21"",""U18"",""U22"",""P12"",""U29"",""P27"",""P3"",""U24"",""U4"",""P6"",""U9"",""U2"",""U1"",""P16"",""U8"",""U11"",""U17"",""P13"",""U23"",""P10"",""U26"",""U14"",""P5"",""P25"",""U20"",""U19"",""U7"",""U28""]","4","4","0","0","1","1","","null","[""library_v1.mp4""]","null","demo_video","","","","","","","1","demo1","library_v1.mp4","library","Demo","[4.14435,7.489131,14.191938]","3","","","","","","","","","","","","","","","","","",""
"","","","","","call-function","10","2.0.0","116484","85","1","2026-06-08 18:49:28","segmentation_norming_randomized_order_maxrun_attention_v4","146.198.38.80","Mozilla/5.0 (Windows NT 10.0; Win64; x64) AppleWebKit/537.36 (KHTML, like Gecko) Chrome/148.0.0.0 Safari/537.36","WebKit","Chrome","148.0.0.0","Windows","10.0","https://uencdihehs.cognition.run/?PROLIFIC_PID=6a0ecfa37f0d9711b810596e&STUDY_ID=6a270c2e609d6ae583c06396&STUDY_ID=6a270c2e609d6ae583c06396&SESSION_ID=6a270e5287df46a191507a1a?PROLIFIC_PID=6a0ecfa37f0d9711b810596e&SESSION_ID=6a270e5287df46a191507a1a?","en-GB,en;q=0.9","6a0ecfa37f0d9711b810596e","6a270c2e609d6ae583c06396","6a270e5287df46a191507a1a?","6a0ecfa37f0d9711b810596e","6a270c2e609d6ae583c06396","6a270e5287df46a191507a1a?","30","[15,30,21,18,22,12,29,27,3,24,4,6,9,2,1,16,8,11,17,13,23,10,26,14,5,25,20,19,7,28]","[""U15"",""U30"",""P21"",""P18"",""P22"",""U12"",""P29"",""U27"",""U3"",""P24"",""P4"",""U6"",""P9"",""P2"",""P1"",""U16"",""P8"",""P11"",""P17"",""U13"",""P23"",""U10"",""P26"",""P14"",""U5"",""U25"",""P20"",""P19"",""P7"",""P28""]","[""P15"",""P30"",""U21"",""U18"",""U22"",""P12"",""U29"",""P27"",""P3"",""U24"",""U4"",""P6"",""U9"",""U2"",""U1"",""P16"",""U8"",""U11"",""U17"",""P13"",""U23"",""P10"",""U26"",""U14"",""P5"",""P25"",""U20"",""U19"",""U7"",""U28""]","4","4","0","0","1","1","","","","","","","","","","","","","","","","","","","","","","","","","","","","","","","","","","","",""
"","","","","","html-button-response","11","2.0.0","125333","85","1","2026-06-08 18:49:28","segmentation_norming_randomized_order_maxrun_attention_v4","146.198.38.80","Mozilla/5.0 (Windows NT 10.0; Win64; x64) AppleWebKit/537.36 (KHTML, like Gecko) Chrome/148.0.0.0 Safari/537.36","WebKit","Chrome","148.0.0.0","Windows","10.0","https://uencdihehs.cognition.run/?PROLIFIC_PID=6a0ecfa37f0d9711b810596e&STUDY_ID=6a270c2e609d6ae583c06396&STUDY_ID=6a270c2e609d6ae583c06396&SESSION_ID=6a270e5287df46a191507a1a?PROLIFIC_PID=6a0ecfa37f0d9711b810596e&SESSION_ID=6a270e5287df46a191507a1a?","en-GB,en;q=0.9","6a0ecfa37f0d9711b810596e","6a270c2e609d6ae583c06396","6a270e5287df46a191507a1a?","6a0ecfa37f0d9711b810596e","6a270c2e609d6ae583c06396","6a270e5287df46a191507a1a?","30","[15,30,21,18,22,12,29,27,3,24,4,6,9,2,1,16,8,11,17,13,23,10,26,14,5,25,20,19,7,28]","[""U15"",""U30"",""P21"",""P18"",""P22"",""U12"",""P29"",""U27"",""U3"",""P24"",""P4"",""U6"",""P9"",""P2"",""P1"",""U16"",""P8"",""P11"",""P17"",""U13"",""P23"",""U10"",""P26"",""P14"",""U5"",""U25"",""P20"",""P19"",""P7"",""P28""]","[""P15"",""P30"",""U21"",""U18"",""U22"",""P12"",""U29"",""P27"",""P3"",""U24"",""U4"",""P6"",""U9"",""U2"",""U1"",""P16"",""U8"",""U11"",""U17"",""P13"",""U23"",""P10"",""U26"",""U14"",""P5"",""P25"",""U20"",""U19"",""U7"",""U28""]","4","4","0","0","1","1","","8848","Usually people tend to press the button more times than you did.<br><br>As a reminder, press the <strong>SPACE BAR</strong> whenever one <strong>smallest meaningful unit</strong> of activity ends and another begins.<br><br>Let's try another demo trial.<br><br>","0","demo_feedback","","","","","","","","","","","","","","","","","","","","","","","","","","","","","","",""
"","","","","","video-keyboard-response","12","2.0.0","160956","85","1","2026-06-08 18:49:28","segmentation_norming_randomized_order_maxrun_attention_v4","146.198.38.80","Mozilla/5.0 (Windows NT 10.0; Win64; x64) AppleWebKit/537.36 (KHTML, like Gecko) Chrome/148.0.0.0 Safari/537.36","WebKit","Chrome","148.0.0.0","Windows","10.0","https://uencdihehs.cognition.run/?PROLIFIC_PID=6a0ecfa37f0d9711b810596e&STUDY_ID=6a270c2e609d6ae583c06396&STUDY_ID=6a270c2e609d6ae583c06396&SESSION_ID=6a270e5287df46a191507a1a?PROLIFIC_PID=6a0ecfa37f0d9711b810596e&SESSION_ID=6a270e5287df46a191507a1a?","en-GB,en;q=0.9","6a0ecfa37f0d9711b810596e","6a270c2e609d6ae583c06396","6a270e5287df46a191507a1a?","6a0ecfa37f0d9711b810596e","6a270c2e609d6ae583c06396","6a270e5287df46a191507a1a?","30","[15,30,21,18,22,12,29,27,3,24,4,6,9,2,1,16,8,11,17,13,23,10,26,14,5,25,20,19,7,28]","[""U15"",""U30"",""P21"",""P18"",""P22"",""U12"",""P29"",""U27"",""U3"",""P24"",""P4"",""U6"",""P9"",""P2"",""P1"",""U16"",""P8"",""P11"",""P17"",""U13"",""P23"",""U10"",""P26"",""P14"",""U5"",""U25"",""P20"",""P19"",""P7"",""P28""]","[""P15"",""P30"",""U21"",""U18"",""U22"",""P12"",""U29"",""P27"",""P3"",""U24"",""U4"",""P6"",""U9"",""U2"",""U1"",""P16"",""U8"",""U11"",""U17"",""P13"",""U23"",""P10"",""U26"",""U14"",""P5"",""P25"",""U20"",""U19"",""U7"",""U28""]","4","4","0","0","1","1","","null","[""garden_v1.mp4""]","null","demo_video","","","","","","","2","demo2","garden_v1.mp4","garden","Demo","[2.672023,3.866153,5.124861,6.014241,6.759685,7.955626,9.579792,11.792009,13.028752,14.638343,16.776981,18.619933,20.932263,23.11318,24.186546,24.842762,27.693384,30.375444,32.515488,35.369051]","20","","","","","","","","","","","","","","","","","",""
"","","","","","call-function","13","2.0.0","160957","85","1","2026-06-08 18:49:28","segmentation_norming_randomized_order_maxrun_attention_v4","146.198.38.80","Mozilla/5.0 (Windows NT 10.0; Win64; x64) AppleWebKit/537.36 (KHTML, like Gecko) Chrome/148.0.0.0 Safari/537.36","WebKit","Chrome","148.0.0.0","Windows","10.0","https://uencdihehs.cognition.run/?PROLIFIC_PID=6a0ecfa37f0d9711b810596e&STUDY_ID=6a270c2e609d6ae583c06396&STUDY_ID=6a270c2e609d6ae583c06396&SESSION_ID=6a270e5287df46a191507a1a?PROLIFIC_PID=6a0ecfa37f0d9711b810596e&SESSION_ID=6a270e5287df46a191507a1a?","en-GB,en;q=0.9","6a0ecfa37f0d9711b810596e","6a270c2e609d6ae583c06396","6a270e5287df46a191507a1a?","6a0ecfa37f0d9711b810596e","6a270c2e609d6ae583c06396","6a270e5287df46a191507a1a?","30","[15,30,21,18,22,12,29,27,3,24,4,6,9,2,1,16,8,11,17,13,23,10,26,14,5,25,20,19,7,28]","[""U15"",""U30"",""P21"",""P18"",""P22"",""U12"",""P29"",""U27"",""U3"",""P24"",""P4"",""U6"",""P9"",""P2"",""P1"",""U16"",""P8"",""P11"",""P17"",""U13"",""P23"",""U10"",""P26"",""P14"",""U5"",""U25"",""P20"",""P19"",""P7"",""P28""]","[""P15"",""P30"",""U21"",""U18"",""U22"",""P12"",""U29"",""P27"",""P3"",""U24"",""U4"",""P6"",""U9"",""U2"",""U1"",""P16"",""U8"",""U11"",""U17"",""P13"",""U23"",""P10"",""U26"",""U14"",""P5"",""P25"",""U20"",""U19"",""U7"",""U28""]","4","4","0","0","1","1","","","","","","","","","","","","","","","","","","","","","","","","","","","","","","","","","","","",""
"","","","","","html-button-response","14","2.0.0","167206","85","1","2026-06-08 18:49:28","segmentation_norming_randomized_order_maxrun_attention_v4","146.198.38.80","Mozilla/5.0 (Windows NT 10.0; Win64; x64) AppleWebKit/537.36 (KHTML, like Gecko) Chrome/148.0.0.0 Safari/537.36","WebKit","Chrome","148.0.0.0","Windows","10.0","https://uencdihehs.cognition.run/?PROLIFIC_PID=6a0ecfa37f0d9711b810596e&STUDY_ID=6a270c2e609d6ae583c06396&STUDY_ID=6a270c2e609d6ae583c06396&SESSION_ID=6a270e5287df46a191507a1a?PROLIFIC_PID=6a0ecfa37f0d9711b810596e&SESSION_ID=6a270e5287df46a191507a1a?","en-GB,en;q=0.9","6a0ecfa37f0d9711b810596e","6a270c2e609d6ae583c06396","6a270e5287df46a191507a1a?","6a0ecfa37f0d9711b810596e","6a270c2e609d6ae583c06396","6a270e5287df46a191507a1a?","30","[15,30,21,18,22,12,29,27,3,24,4,6,9,2,1,16,8,11,17,13,23,10,26,14,5,25,20,19,7,28]","[""U15"",""U30"",""P21"",""P18"",""P22"",""U12"",""P29"",""U27"",""U3"",""P24"",""P4"",""U6"",""P9"",""P2"",""P1"",""U16"",""P8"",""P11"",""P17"",""U13"",""P23"",""U10"",""P26"",""P14"",""U5"",""U25"",""P20"",""P19"",""P7"",""P28""]","[""P15"",""P30"",""U21"",""U18"",""U22"",""P12"",""U29"",""P27"",""P3"",""U24"",""U4"",""P6"",""U9"",""U2"",""U1"",""P16"",""U8"",""U11"",""U17"",""P13"",""U23"",""P10"",""U26"",""U14"",""P5"",""P25"",""U20"",""U19"",""U7"",""U28""]","4","4","0","0","1","1","","6249","Great! Hopefully you got an idea of what a meaningful unit is.<br><br>Remember that there is no right or wrong answer.<br><br>We just want to know which parts of the activity seem natural and meaningful to you.<br><br>Now the main experiment starts.<br><br>For each clip, while watching, remember to press the SPACE BAR whenever one <strong>smallest meaningful unit</strong> of activity ends and another begins.<br><br>","0","demo_feedback","","","","","","","","","","","","","","","","","","","","","","","","","","","","","","",""
"true","false","[]","[]","[]","preload","15","2.0.0","206645","85","1","2026-06-08 18:49:28","segmentation_norming_randomized_order_maxrun_attention_v4","146.198.38.80","Mozilla/5.0 (Windows NT 10.0; Win64; x64) AppleWebKit/537.36 (KHTML, like Gecko) Chrome/148.0.0.0 Safari/537.36","WebKit","Chrome","148.0.0.0","Windows","10.0","https://uencdihehs.cognition.run/?PROLIFIC_PID=6a0ecfa37f0d9711b810596e&STUDY_ID=6a270c2e609d6ae583c06396&STUDY_ID=6a270c2e609d6ae583c06396&SESSION_ID=6a270e5287df46a191507a1a?PROLIFIC_PID=6a0ecfa37f0d9711b810596e&SESSION_ID=6a270e5287df46a191507a1a?","en-GB,en;q=0.9","6a0ecfa37f0d9711b810596e","6a270c2e609d6ae583c06396","6a270e5287df46a191507a1a?","6a0ecfa37f0d9711b810596e","6a270c2e609d6ae583c06396","6a270e5287df46a191507a1a?","30","[15,30,21,18,22,12,29,27,3,24,4,6,9,2,1,16,8,11,17,13,23,10,26,14,5,25,20,19,7,28]","[""U15"",""U30"",""P21"",""P18"",""P22"",""U12"",""P29"",""U27"",""U3"",""P24"",""P4"",""U6"",""P9"",""P2"",""P1"",""U16"",""P8"",""P11"",""P17"",""U13"",""P23"",""U10"",""P26"",""P14"",""U5"",""U25"",""P20"",""P19"",""P7"",""P28""]","[""P15"",""P30"",""U21"",""U18"",""U22"",""P12"",""U29"",""P27"",""P3"",""U24"",""U4"",""P6"",""U9"",""U2"",""U1"",""P16"",""U8"",""U11"",""U17"",""P13"",""U23"",""P10"",""U26"",""U14"",""P5"",""P25"",""U20"",""U19"",""U7"",""U28""]","4","4","0","0","1","1","","","","","","","","","","","","","","","","","","","","","","","","","","","","","","","","","","","",""
"","","","","","video-keyboard-response","16","2.0.0","237978","85","1","2026-06-08 18:49:28","segmentation_norming_randomized_order_maxrun_attention_v4","146.198.38.80","Mozilla/5.0 (Windows NT 10.0; Win64; x64) AppleWebKit/537.36 (KHTML, like Gecko) Chrome/148.0.0.0 Safari/537.36","WebKit","Chrome","148.0.0.0","Windows","10.0","https://uencdihehs.cognition.run/?PROLIFIC_PID=6a0ecfa37f0d9711b810596e&STUDY_ID=6a270c2e609d6ae583c06396&STUDY_ID=6a270c2e609d6ae583c06396&SESSION_ID=6a270e5287df46a191507a1a?PROLIFIC_PID=6a0ecfa37f0d9711b810596e&SESSION_ID=6a270e5287df46a191507a1a?","en-GB,en;q=0.9","6a0ecfa37f0d9711b810596e","6a270c2e609d6ae583c06396","6a270e5287df46a191507a1a?","6a0ecfa37f0d9711b810596e","6a270c2e609d6ae583c06396","6a270e5287df46a191507a1a?","30","[15,30,21,18,22,12,29,27,3,24,4,6,9,2,1,16,8,11,17,13,23,10,26,14,5,25,20,19,7,28]","[""U15"",""U30"",""P21"",""P18"",""P22"",""U12"",""P29"",""U27"",""U3"",""P24"",""P4"",""U6"",""P9"",""P2"",""P1"",""U16"",""P8"",""P11"",""P17"",""U13"",""P23"",""U10"",""P26"",""P14"",""U5"",""U25"",""P20"",""P19"",""P7"",""P28""]","[""P15"",""P30"",""U21"",""U18"",""U22"",""P12"",""U29"",""P27"",""P3"",""U24"",""U4"",""P6"",""U9"",""U2"",""U1"",""P16"",""U8"",""U11"",""U17"",""P13"",""U23"",""P10"",""U26"",""U14"",""P5"",""P25"",""U20"",""U19"",""U7"",""U28""]","4","4","0","0","1","1","","null","[""laundry_v2.mp4""]","null","segmentation_video","","","","","","","","","laundry_v2.mp4","laundry","Unpredictable","[1.278834,3.657938,6.871684,8.339552,12.759621,14.669741,16.244628,19.267012,22.97821,24.089652,25.983603,28.266026,30.306347]","13","","U15","15","1","1","1.1114420000000003","false","false","false","","false","0","0","false","false","false","false",""
"","","","","","survey-multi-choice","19","2.0.0","246713","85","1","2026-06-08 18:49:28","segmentation_norming_randomized_order_maxrun_attention_v4","146.198.38.80","Mozilla/5.0 (Windows NT 10.0; Win64; x64) AppleWebKit/537.36 (KHTML, like Gecko) Chrome/148.0.0.0 Safari/537.36","WebKit","Chrome","148.0.0.0","Windows","10.0","https://uencdihehs.cognition.run/?PROLIFIC_PID=6a0ecfa37f0d9711b810596e&STUDY_ID=6a270c2e609d6ae583c06396&STUDY_ID=6a270c2e609d6ae583c06396&SESSION_ID=6a270e5287df46a191507a1a?PROLIFIC_PID=6a0ecfa37f0d9711b810596e&SESSION_ID=6a270e5287df46a191507a1a?","en-GB,en;q=0.9","6a0ecfa37f0d9711b810596e","6a270c2e609d6ae583c06396","6a270e5287df46a191507a1a?","6a0ecfa37f0d9711b810596e","6a270c2e609d6ae583c06396","6a270e5287df46a191507a1a?","30","[15,30,21,18,22,12,29,27,3,24,4,6,9,2,1,16,8,11,17,13,23,10,26,14,5,25,20,19,7,28]","[""U15"",""U30"",""P21"",""P18"",""P22"",""U12"",""P29"",""U27"",""U3"",""P24"",""P4"",""U6"",""P9"",""P2"",""P1"",""U16"",""P8"",""P11"",""P17"",""U13"",""P23"",""U10"",""P26"",""P14"",""U5"",""U25"",""P20"",""P19"",""P7"",""P28""]","[""P15"",""P30"",""U21"",""U18"",""U22"",""P12"",""U29"",""P27"",""P3"",""U24"",""U4"",""P6"",""U9"",""U2"",""U1"",""P16"",""U8"",""U11"",""U17"",""P13"",""U23"",""P10"",""U26"",""U14"",""P5"",""P25"",""U20"",""U19"",""U7"",""U28""]","4","4","0","0","1","1","","8732","","{""confidence_rating"":""Slightly unconfident""}","confidence_question","[0]","","","","","","","","","laundry","Unpredictable","","","","U15","15","1","1","","","","","","","","","","","","","Slightly unconfident"
"","","","","","video-keyboard-response","20","2.0.0","283379","85","1","2026-06-08 18:49:28","segmentation_norming_randomized_order_maxrun_attention_v4","146.198.38.80","Mozilla/5.0 (Windows NT 10.0; Win64; x64) AppleWebKit/537.36 (KHTML, like Gecko) Chrome/148.0.0.0 Safari/537.36","WebKit","Chrome","148.0.0.0","Windows","10.0","https://uencdihehs.cognition.run/?PROLIFIC_PID=6a0ecfa37f0d9711b810596e&STUDY_ID=6a270c2e609d6ae583c06396&STUDY_ID=6a270c2e609d6ae583c06396&SESSION_ID=6a270e5287df46a191507a1a?PROLIFIC_PID=6a0ecfa37f0d9711b810596e&SESSION_ID=6a270e5287df46a191507a1a?","en-GB,en;q=0.9","6a0ecfa37f0d9711b810596e","6a270c2e609d6ae583c06396","6a270e5287df46a191507a1a?","6a0ecfa37f0d9711b810596e","6a270c2e609d6ae583c06396","6a270e5287df46a191507a1a?","30","[15,30,21,18,22,12,29,27,3,24,4,6,9,2,1,16,8,11,17,13,23,10,26,14,5,25,20,19,7,28]","[""U15"",""U30"",""P21"",""P18"",""P22"",""U12"",""P29"",""U27"",""U3"",""P24"",""P4"",""U6"",""P9"",""P2"",""P1"",""U16"",""P8"",""P11"",""P17"",""U13"",""P23"",""U10"",""P26"",""P14"",""U5"",""U25"",""P20"",""P19"",""P7"",""P28""]","[""P15"",""P30"",""U21"",""U18"",""U22"",""P12"",""U29"",""P27"",""P3"",""U24"",""U4"",""P6"",""U9"",""U2"",""U1"",""P16"",""U8"",""U11"",""U17"",""P13"",""U23"",""P10"",""U26"",""U14"",""P5"",""P25"",""U20"",""U19"",""U7"",""U28""]","4","4","0","0","1","1","","null","[""whiteboard_v2.mp4""]","null","segmentation_video","","","","","","","","","whiteboard_v2.mp4","whiteboard","Unpredictable","[1.415345,1.890794,2.40721,2.869908,3.398193,3.890042,4.205095,4.568366,5.954077,6.264801,6.78337,7.207263,7.388767,7.553848,9.927557,10.303327,10.757946,11.354882,11.815214,13.883422,15.1782,17.314302,18.602133,19.319574,19.974201,21.074031,21.300672,21.490039,21.987057,22.523567,23.99139,24.871569,26.546094,27.284209,27.809961,28.299531,29.464457,29.894078,30.399833,31.76862,32.336771,33.581961,34.211437,35.544855]","44","","U30","30","1","2","0.1650810000000007","false","true","true","rapid_successive_press","true","0","0","false","false","true","false",""
"","","","","","html-button-response","22","2.0.0","292301","85","1","2026-06-08 18:49:28","segmentation_norming_randomized_order_maxrun_attention_v4","146.198.38.80","Mozilla/5.0 (Windows NT 10.0; Win64; x64) AppleWebKit/537.36 (KHTML, like Gecko) Chrome/148.0.0.0 Safari/537.36","WebKit","Chrome","148.0.0.0","Windows","10.0","https://uencdihehs.cognition.run/?PROLIFIC_PID=6a0ecfa37f0d9711b810596e&STUDY_ID=6a270c2e609d6ae583c06396&STUDY_ID=6a270c2e609d6ae583c06396&SESSION_ID=6a270e5287df46a191507a1a?PROLIFIC_PID=6a0ecfa37f0d9711b810596e&SESSION_ID=6a270e5287df46a191507a1a?","en-GB,en;q=0.9","6a0ecfa37f0d9711b810596e","6a270c2e609d6ae583c06396","6a270e5287df46a191507a1a?","6a0ecfa37f0d9711b810596e","6a270c2e609d6ae583c06396","6a270e5287df46a191507a1a?","30","[15,30,21,18,22,12,29,27,3,24,4,6,9,2,1,16,8,11,17,13,23,10,26,14,5,25,20,19,7,28]","[""U15"",""U30"",""P21"",""P18"",""P22"",""U12"",""P29"",""U27"",""U3"",""P24"",""P4"",""U6"",""P9"",""P2"",""P1"",""U16"",""P8"",""P11"",""P17"",""U13"",""P23"",""U10"",""P26"",""P14"",""U5"",""U25"",""P20"",""P19"",""P7"",""P28""]","[""P15"",""P30"",""U21"",""U18"",""U22"",""P12"",""U29"",""P27"",""P3"",""U24"",""U4"",""P6"",""U9"",""U2"",""U1"",""P16"",""U8"",""U11"",""U17"",""P13"",""U23"",""P10"",""U26"",""U14"",""P5"",""P25"",""U20"",""U19"",""U7"",""U28""]","4","4","0","0","1","1","","8917","<p style='color:red; font-weight:bold; font-size:24px;'>You did not meet the attention criteria for the previous video.</p><p>You may be asked to return your submission and cancel your participation if you do not attend to the task carefully.</p><p>You have <strong>3</strong> attention-violation warning(s) remaining before you will be asked to exit the experiment.</p><p>Please watch each video carefully and press the SPACE BAR only when one smallest meaningful unit of activity ends and another begins.</p>","0","attention_violation_feedback","","","","","","","","","","whiteboard","Unpredictable","","","","U30","30","1","2","","","","","rapid_successive_press","","","","","","","",""
"","","","","","video-keyboard-response","24","2.0.0","336459","85","1","2026-06-08 18:49:28","segmentation_norming_randomized_order_maxrun_attention_v4","146.198.38.80","Mozilla/5.0 (Windows NT 10.0; Win64; x64) AppleWebKit/537.36 (KHTML, like Gecko) Chrome/148.0.0.0 Safari/537.36","WebKit","Chrome","148.0.0.0","Windows","10.0","https://uencdihehs.cognition.run/?PROLIFIC_PID=6a0ecfa37f0d9711b810596e&STUDY_ID=6a270c2e609d6ae583c06396&STUDY_ID=6a270c2e609d6ae583c06396&SESSION_ID=6a270e5287df46a191507a1a?PROLIFIC_PID=6a0ecfa37f0d9711b810596e&SESSION_ID=6a270e5287df46a191507a1a?","en-GB,en;q=0.9","6a0ecfa37f0d9711b810596e","6a270c2e609d6ae583c06396","6a270e5287df46a191507a1a?","6a0ecfa37f0d9711b810596e","6a270c2e609d6ae583c06396","6a270e5287df46a191507a1a?","30","[15,30,21,18,22,12,29,27,3,24,4,6,9,2,1,16,8,11,17,13,23,10,26,14,5,25,20,19,7,28]","[""U15"",""U30"",""P21"",""P18"",""P22"",""U12"",""P29"",""U27"",""U3"",""P24"",""P4"",""U6"",""P9"",""P2"",""P1"",""U16"",""P8"",""P11"",""P17"",""U13"",""P23"",""U10"",""P26"",""P14"",""U5"",""U25"",""P20"",""P19"",""P7"",""P28""]","[""P15"",""P30"",""U21"",""U18"",""U22"",""P12"",""U29"",""P27"",""P3"",""U24"",""U4"",""P6"",""U9"",""U2"",""U1"",""P16"",""U8"",""U11"",""U17"",""P13"",""U23"",""P10"",""U26"",""U14"",""P5"",""P25"",""U20"",""U19"",""U7"",""U28""]","4","4","0","0","1","1","","null","[""printer_v1.mp4""]","null","segmentation_video","","","","","","","","","printer_v1.mp4","printer","Predictable","[3.228902,7.813927,12.067496,14.652665,16.021361,19.078028,20.955316,22.851378,24.0167,26.100779,28.151607,29.852734,30.918143,32.05555,33.802336,38.025476,39.35015,41.425911,43.457761]","19","","P21","21","1","3","1.065408999999999","false","false","false","","false","0","0","false","false","false","false",""
"","","","","","survey-multi-choice","27","2.0.0","339929","85","1","2026-06-08 18:49:28","segmentation_norming_randomized_order_maxrun_attention_v4","146.198.38.80","Mozilla/5.0 (Windows NT 10.0; Win64; x64) AppleWebKit/537.36 (KHTML, like Gecko) Chrome/148.0.0.0 Safari/537.36","WebKit","Chrome","148.0.0.0","Windows","10.0","https://uencdihehs.cognition.run/?PROLIFIC_PID=6a0ecfa37f0d9711b810596e&STUDY_ID=6a270c2e609d6ae583c06396&STUDY_ID=6a270c2e609d6ae583c06396&SESSION_ID=6a270e5287df46a191507a1a?PROLIFIC_PID=6a0ecfa37f0d9711b810596e&SESSION_ID=6a270e5287df46a191507a1a?","en-GB,en;q=0.9","6a0ecfa37f0d9711b810596e","6a270c2e609d6ae583c06396","6a270e5287df46a191507a1a?","6a0ecfa37f0d9711b810596e","6a270c2e609d6ae583c06396","6a270e5287df46a191507a1a?","30","[15,30,21,18,22,12,29,27,3,24,4,6,9,2,1,16,8,11,17,13,23,10,26,14,5,25,20,19,7,28]","[""U15"",""U30"",""P21"",""P18"",""P22"",""U12"",""P29"",""U27"",""U3"",""P24"",""P4"",""U6"",""P9"",""P2"",""P1"",""U16"",""P8"",""P11"",""P17"",""U13"",""P23"",""U10"",""P26"",""P14"",""U5"",""U25"",""P20"",""P19"",""P7"",""P28""]","[""P15"",""P30"",""U21"",""U18"",""U22"",""P12"",""U29"",""P27"",""P3"",""U24"",""U4"",""P6"",""U9"",""U2"",""U1"",""P16"",""U8"",""U11"",""U17"",""P13"",""U23"",""P10"",""U26"",""U14"",""P5"",""P25"",""U20"",""U19"",""U7"",""U28""]","4","4","0","0","1","1","","3466","","{""confidence_rating"":""Moderately confident""}","confidence_question","[0]","","","","","","","","","printer","Predictable","","","","P21","21","1","3","","","","","","","","","","","","","Moderately confident"
"","","","","","video-keyboard-response","28","2.0.0","364699","85","1","2026-06-08 18:49:28","segmentation_norming_randomized_order_maxrun_attention_v4","146.198.38.80","Mozilla/5.0 (Windows NT 10.0; Win64; x64) AppleWebKit/537.36 (KHTML, like Gecko) Chrome/148.0.0.0 Safari/537.36","WebKit","Chrome","148.0.0.0","Windows","10.0","https://uencdihehs.cognition.run/?PROLIFIC_PID=6a0ecfa37f0d9711b810596e&STUDY_ID=6a270c2e609d6ae583c06396&STUDY_ID=6a270c2e609d6ae583c06396&SESSION_ID=6a270e5287df46a191507a1a?PROLIFIC_PID=6a0ecfa37f0d9711b810596e&SESSION_ID=6a270e5287df46a191507a1a?","en-GB,en;q=0.9","6a0ecfa37f0d9711b810596e","6a270c2e609d6ae583c06396","6a270e5287df46a191507a1a?","6a0ecfa37f0d9711b810596e","6a270c2e609d6ae583c06396","6a270e5287df46a191507a1a?","30","[15,30,21,18,22,12,29,27,3,24,4,6,9,2,1,16,8,11,17,13,23,10,26,14,5,25,20,19,7,28]","[""U15"",""U30"",""P21"",""P18"",""P22"",""U12"",""P29"",""U27"",""U3"",""P24"",""P4"",""U6"",""P9"",""P2"",""P1"",""U16"",""P8"",""P11"",""P17"",""U13"",""P23"",""U10"",""P26"",""P14"",""U5"",""U25"",""P20"",""P19"",""P7"",""P28""]","[""P15"",""P30"",""U21"",""U18"",""U22"",""P12"",""U29"",""P27"",""P3"",""U24"",""U4"",""P6"",""U9"",""U2"",""U1"",""P16"",""U8"",""U11"",""U17"",""P13"",""U23"",""P10"",""U26"",""U14"",""P5"",""P25"",""U20"",""U19"",""U7"",""U28""]","4","4","0","0","1","1","","null","[""painting_v1.mp4""]","null","segmentation_video","","","","","","","","","painting_v1.mp4","painting","Predictable","[1.398016,3.074239,4.240573,6.378351,8.269966,9.954304,11.647482,13.136805,16.391049,18.546644,20.418387,22.324773,23.714308]","13","","P18","18","1","4","1.1663340000000004","false","false","false","","false","0","0","false","false","false","false",""
"","","","","","survey-multi-choice","31","2.0.0","367090","85","1","2026-06-08 18:49:28","segmentation_norming_randomized_order_maxrun_attention_v4","146.198.38.80","Mozilla/5.0 (Windows NT 10.0; Win64; x64) AppleWebKit/537.36 (KHTML, like Gecko) Chrome/148.0.0.0 Safari/537.36","WebKit","Chrome","148.0.0.0","Windows","10.0","https://uencdihehs.cognition.run/?PROLIFIC_PID=6a0ecfa37f0d9711b810596e&STUDY_ID=6a270c2e609d6ae583c06396&STUDY_ID=6a270c2e609d6ae583c06396&SESSION_ID=6a270e5287df46a191507a1a?PROLIFIC_PID=6a0ecfa37f0d9711b810596e&SESSION_ID=6a270e5287df46a191507a1a?","en-GB,en;q=0.9","6a0ecfa37f0d9711b810596e","6a270c2e609d6ae583c06396","6a270e5287df46a191507a1a?","6a0ecfa37f0d9711b810596e","6a270c2e609d6ae583c06396","6a270e5287df46a191507a1a?","30","[15,30,21,18,22,12,29,27,3,24,4,6,9,2,1,16,8,11,17,13,23,10,26,14,5,25,20,19,7,28]","[""U15"",""U30"",""P21"",""P18"",""P22"",""U12"",""P29"",""U27"",""U3"",""P24"",""P4"",""U6"",""P9"",""P2"",""P1"",""U16"",""P8"",""P11"",""P17"",""U13"",""P23"",""U10"",""P26"",""P14"",""U5"",""U25"",""P20"",""P19"",""P7"",""P28""]","[""P15"",""P30"",""U21"",""U18"",""U22"",""P12"",""U29"",""P27"",""P3"",""U24"",""U4"",""P6"",""U9"",""U2"",""U1"",""P16"",""U8"",""U11"",""U17"",""P13"",""U23"",""P10"",""U26"",""U14"",""P5"",""P25"",""U20"",""U19"",""U7"",""U28""]","4","4","0","0","1","1","","2387","","{""confidence_rating"":""Moderately confident""}","confidence_question","[0]","","","","","","","","","painting","Predictable","","","","P18","18","1","4","","","","","","","","","","","","","Moderately confident"
"","","","","","video-keyboard-response","32","2.0.0","386419","85","1","2026-06-08 18:49:28","segmentation_norming_randomized_order_maxrun_attention_v4","146.198.38.80","Mozilla/5.0 (Windows NT 10.0; Win64; x64) AppleWebKit/537.36 (KHTML, like Gecko) Chrome/148.0.0.0 Safari/537.36","WebKit","Chrome","148.0.0.0","Windows","10.0","https://uencdihehs.cognition.run/?PROLIFIC_PID=6a0ecfa37f0d9711b810596e&STUDY_ID=6a270c2e609d6ae583c06396&STUDY_ID=6a270c2e609d6ae583c06396&SESSION_ID=6a270e5287df46a191507a1a?PROLIFIC_PID=6a0ecfa37f0d9711b810596e&SESSION_ID=6a270e5287df46a191507a1a?","en-GB,en;q=0.9","6a0ecfa37f0d9711b810596e","6a270c2e609d6ae583c06396","6a270e5287df46a191507a1a?","6a0ecfa37f0d9711b810596e","6a270c2e609d6ae583c06396","6a270e5287df46a191507a1a?","30","[15,30,21,18,22,12,29,27,3,24,4,6,9,2,1,16,8,11,17,13,23,10,26,14,5,25,20,19,7,28]","[""U15"",""U30"",""P21"",""P18"",""P22"",""U12"",""P29"",""U27"",""U3"",""P24"",""P4"",""U6"",""P9"",""P2"",""P1"",""U16"",""P8"",""P11"",""P17"",""U13"",""P23"",""U10"",""P26"",""P14"",""U5"",""U25"",""P20"",""P19"",""P7"",""P28""]","[""P15"",""P30"",""U21"",""U18"",""U22"",""P12"",""U29"",""P27"",""P3"",""U24"",""U4"",""P6"",""U9"",""U2"",""U1"",""P16"",""U8"",""U11"",""U17"",""P13"",""U23"",""P10"",""U26"",""U14"",""P5"",""P25"",""U20"",""U19"",""U7"",""U28""]","4","4","0","0","1","1","","null","[""record_v1.mp4""]","null","segmentation_video","","","","","","","","","record_v1.mp4","record","Predictable","[1.234125,6.109093,8.660659,10.012812,11.768415,14.766207,16.689435]","7","","P22","22","1","5","1.3521529999999995","false","false","false","","false","0","0","false","false","false","false",""
"","","","","","survey-multi-choice","35","2.0.0","388741","85","1","2026-06-08 18:49:28","segmentation_norming_randomized_order_maxrun_attention_v4","146.198.38.80","Mozilla/5.0 (Windows NT 10.0; Win64; x64) AppleWebKit/537.36 (KHTML, like Gecko) Chrome/148.0.0.0 Safari/537.36","WebKit","Chrome","148.0.0.0","Windows","10.0","https://uencdihehs.cognition.run/?PROLIFIC_PID=6a0ecfa37f0d9711b810596e&STUDY_ID=6a270c2e609d6ae583c06396&STUDY_ID=6a270c2e609d6ae583c06396&SESSION_ID=6a270e5287df46a191507a1a?PROLIFIC_PID=6a0ecfa37f0d9711b810596e&SESSION_ID=6a270e5287df46a191507a1a?","en-GB,en;q=0.9","6a0ecfa37f0d9711b810596e","6a270c2e609d6ae583c06396","6a270e5287df46a191507a1a?","6a0ecfa37f0d9711b810596e","6a270c2e609d6ae583c06396","6a270e5287df46a191507a1a?","30","[15,30,21,18,22,12,29,27,3,24,4,6,9,2,1,16,8,11,17,13,23,10,26,14,5,25,20,19,7,28]","[""U15"",""U30"",""P21"",""P18"",""P22"",""U12"",""P29"",""U27"",""U3"",""P24"",""P4"",""U6"",""P9"",""P2"",""P1"",""U16"",""P8"",""P11"",""P17"",""U13"",""P23"",""U10"",""P26"",""P14"",""U5"",""U25"",""P20"",""P19"",""P7"",""P28""]","[""P15"",""P30"",""U21"",""U18"",""U22"",""P12"",""U29"",""P27"",""P3"",""U24"",""U4"",""P6"",""U9"",""U2"",""U1"",""P16"",""U8"",""U11"",""U17"",""P13"",""U23"",""P10"",""U26"",""U14"",""P5"",""P25"",""U20"",""U19"",""U7"",""U28""]","4","4","0","0","1","1","","2318","","{""confidence_rating"":""Moderately confident""}","confidence_question","[0]","","","","","","","","","record","Predictable","","","","P22","22","1","5","","","","","","","","","","","","","Moderately confident"
"","","","","","video-keyboard-response","36","2.0.0","424558","85","1","2026-06-08 18:49:28","segmentation_norming_randomized_order_maxrun_attention_v4","146.198.38.80","Mozilla/5.0 (Windows NT 10.0; Win64; x64) AppleWebKit/537.36 (KHTML, like Gecko) Chrome/148.0.0.0 Safari/537.36","WebKit","Chrome","148.0.0.0","Windows","10.0","https://uencdihehs.cognition.run/?PROLIFIC_PID=6a0ecfa37f0d9711b810596e&STUDY_ID=6a270c2e609d6ae583c06396&STUDY_ID=6a270c2e609d6ae583c06396&SESSION_ID=6a270e5287df46a191507a1a?PROLIFIC_PID=6a0ecfa37f0d9711b810596e&SESSION_ID=6a270e5287df46a191507a1a?","en-GB,en;q=0.9","6a0ecfa37f0d9711b810596e","6a270c2e609d6ae583c06396","6a270e5287df46a191507a1a?","6a0ecfa37f0d9711b810596e","6a270c2e609d6ae583c06396","6a270e5287df46a191507a1a?","30","[15,30,21,18,22,12,29,27,3,24,4,6,9,2,1,16,8,11,17,13,23,10,26,14,5,25,20,19,7,28]","[""U15"",""U30"",""P21"",""P18"",""P22"",""U12"",""P29"",""U27"",""U3"",""P24"",""P4"",""U6"",""P9"",""P2"",""P1"",""U16"",""P8"",""P11"",""P17"",""U13"",""P23"",""U10"",""P26"",""P14"",""U5"",""U25"",""P20"",""P19"",""P7"",""P28""]","[""P15"",""P30"",""U21"",""U18"",""U22"",""P12"",""U29"",""P27"",""P3"",""U24"",""U4"",""P6"",""U9"",""U2"",""U1"",""P16"",""U8"",""U11"",""U17"",""P13"",""U23"",""P10"",""U26"",""U14"",""P5"",""P25"",""U20"",""U19"",""U7"",""U28""]","4","4","0","0","1","1","","null","[""football_v2.mp4""]","null","segmentation_video","","","","","","","","","football_v2.mp4","football","Unpredictable","[1.852183,3.255606,4.487422,7.14941,9.044735,10.791383,12.771559,14.783306,21.130675,22.851745,24.458564,26.1768,29.072949,30.513972,31.975537,32.859347,34.94337]","17","","U12","12","1","6","0.8838100000000004","false","false","false","","false","0","0","false","false","false","false",""
"","","","","","survey-multi-choice","39","2.0.0","426823","85","1","2026-06-08 18:49:28","segmentation_norming_randomized_order_maxrun_attention_v4","146.198.38.80","Mozilla/5.0 (Windows NT 10.0; Win64; x64) AppleWebKit/537.36 (KHTML, like Gecko) Chrome/148.0.0.0 Safari/537.36","WebKit","Chrome","148.0.0.0","Windows","10.0","https://uencdihehs.cognition.run/?PROLIFIC_PID=6a0ecfa37f0d9711b810596e&STUDY_ID=6a270c2e609d6ae583c06396&STUDY_ID=6a270c2e609d6ae583c06396&SESSION_ID=6a270e5287df46a191507a1a?PROLIFIC_PID=6a0ecfa37f0d9711b810596e&SESSION_ID=6a270e5287df46a191507a1a?","en-GB,en;q=0.9","6a0ecfa37f0d9711b810596e","6a270c2e609d6ae583c06396","6a270e5287df46a191507a1a?","6a0ecfa37f0d9711b810596e","6a270c2e609d6ae583c06396","6a270e5287df46a191507a1a?","30","[15,30,21,18,22,12,29,27,3,24,4,6,9,2,1,16,8,11,17,13,23,10,26,14,5,25,20,19,7,28]","[""U15"",""U30"",""P21"",""P18"",""P22"",""U12"",""P29"",""U27"",""U3"",""P24"",""P4"",""U6"",""P9"",""P2"",""P1"",""U16"",""P8"",""P11"",""P17"",""U13"",""P23"",""U10"",""P26"",""P14"",""U5"",""U25"",""P20"",""P19"",""P7"",""P28""]","[""P15"",""P30"",""U21"",""U18"",""U22"",""P12"",""U29"",""P27"",""P3"",""U24"",""U4"",""P6"",""U9"",""U2"",""U1"",""P16"",""U8"",""U11"",""U17"",""P13"",""U23"",""P10"",""U26"",""U14"",""P5"",""P25"",""U20"",""U19"",""U7"",""U28""]","4","4","0","0","1","1","","2261","","{""confidence_rating"":""Moderately confident""}","confidence_question","[0]","","","","","","","","","football","Unpredictable","","","","U12","12","1","6","","","","","","","","","","","","","Moderately confident"
"","","","","","video-keyboard-response","40","2.0.0","448479","85","1","2026-06-08 18:49:28","segmentation_norming_randomized_order_maxrun_attention_v4","146.198.38.80","Mozilla/5.0 (Windows NT 10.0; Win64; x64) AppleWebKit/537.36 (KHTML, like Gecko) Chrome/148.0.0.0 Safari/537.36","WebKit","Chrome","148.0.0.0","Windows","10.0","https://uencdihehs.cognition.run/?PROLIFIC_PID=6a0ecfa37f0d9711b810596e&STUDY_ID=6a270c2e609d6ae583c06396&STUDY_ID=6a270c2e609d6ae583c06396&SESSION_ID=6a270e5287df46a191507a1a?PROLIFIC_PID=6a0ecfa37f0d9711b810596e&SESSION_ID=6a270e5287df46a191507a1a?","en-GB,en;q=0.9","6a0ecfa37f0d9711b810596e","6a270c2e609d6ae583c06396","6a270e5287df46a191507a1a?","6a0ecfa37f0d9711b810596e","6a270c2e609d6ae583c06396","6a270e5287df46a191507a1a?","30","[15,30,21,18,22,12,29,27,3,24,4,6,9,2,1,16,8,11,17,13,23,10,26,14,5,25,20,19,7,28]","[""U15"",""U30"",""P21"",""P18"",""P22"",""U12"",""P29"",""U27"",""U3"",""P24"",""P4"",""U6"",""P9"",""P2"",""P1"",""U16"",""P8"",""P11"",""P17"",""U13"",""P23"",""U10"",""P26"",""P14"",""U5"",""U25"",""P20"",""P19"",""P7"",""P28""]","[""P15"",""P30"",""U21"",""U18"",""U22"",""P12"",""U29"",""P27"",""P3"",""U24"",""U4"",""P6"",""U9"",""U2"",""U1"",""P16"",""U8"",""U11"",""U17"",""P13"",""U23"",""P10"",""U26"",""U14"",""P5"",""P25"",""U20"",""U19"",""U7"",""U28""]","4","4","0","0","1","1","","null","[""walking_v1.mp4""]","null","segmentation_video","","","","","","","","","walking_v1.mp4","walking","Predictable","[1.702118,2.71903,4.465933,6.151369,7.561957,9.468999,11.296829,12.742054,14.139215,15.714357,18.336702,19.781498,20.775739]","13","","P29","29","1","7","0.9942410000000024","false","false","false","","false","0","0","false","false","false","false",""
"","","","","","survey-multi-choice","43","2.0.0","451354","85","1","2026-06-08 18:49:28","segmentation_norming_randomized_order_maxrun_attention_v4","146.198.38.80","Mozilla/5.0 (Windows NT 10.0; Win64; x64) AppleWebKit/537.36 (KHTML, like Gecko) Chrome/148.0.0.0 Safari/537.36","WebKit","Chrome","148.0.0.0","Windows","10.0","https://uencdihehs.cognition.run/?PROLIFIC_PID=6a0ecfa37f0d9711b810596e&STUDY_ID=6a270c2e609d6ae583c06396&STUDY_ID=6a270c2e609d6ae583c06396&SESSION_ID=6a270e5287df46a191507a1a?PROLIFIC_PID=6a0ecfa37f0d9711b810596e&SESSION_ID=6a270e5287df46a191507a1a?","en-GB,en;q=0.9","6a0ecfa37f0d9711b810596e","6a270c2e609d6ae583c06396","6a270e5287df46a191507a1a?","6a0ecfa37f0d9711b810596e","6a270c2e609d6ae583c06396","6a270e5287df46a191507a1a?","30","[15,30,21,18,22,12,29,27,3,24,4,6,9,2,1,16,8,11,17,13,23,10,26,14,5,25,20,19,7,28]","[""U15"",""U30"",""P21"",""P18"",""P22"",""U12"",""P29"",""U27"",""U3"",""P24"",""P4"",""U6"",""P9"",""P2"",""P1"",""U16"",""P8"",""P11"",""P17"",""U13"",""P23"",""U10"",""P26"",""P14"",""U5"",""U25"",""P20"",""P19"",""P7"",""P28""]","[""P15"",""P30"",""U21"",""U18"",""U22"",""P12"",""U29"",""P27"",""P3"",""U24"",""U4"",""P6"",""U9"",""U2"",""U1"",""P16"",""U8"",""U11"",""U17"",""P13"",""U23"",""P10"",""U26"",""U14"",""P5"",""P25"",""U20"",""U19"",""U7"",""U28""]","4","4","0","0","1","1","","2872","","{""confidence_rating"":""Moderately confident""}","confidence_question","[0]","","","","","","","","","walking","Predictable","","","","P29","29","1","7","","","","","","","","","","","","","Moderately confident"
"","","","","","video-keyboard-response","44","2.0.0","482359","85","1","2026-06-08 18:49:28","segmentation_norming_randomized_order_maxrun_attention_v4","146.198.38.80","Mozilla/5.0 (Windows NT 10.0; Win64; x64) AppleWebKit/537.36 (KHTML, like Gecko) Chrome/148.0.0.0 Safari/537.36","WebKit","Chrome","148.0.0.0","Windows","10.0","https://uencdihehs.cognition.run/?PROLIFIC_PID=6a0ecfa37f0d9711b810596e&STUDY_ID=6a270c2e609d6ae583c06396&STUDY_ID=6a270c2e609d6ae583c06396&SESSION_ID=6a270e5287df46a191507a1a?PROLIFIC_PID=6a0ecfa37f0d9711b810596e&SESSION_ID=6a270e5287df46a191507a1a?","en-GB,en;q=0.9","6a0ecfa37f0d9711b810596e","6a270c2e609d6ae583c06396","6a270e5287df46a191507a1a?","6a0ecfa37f0d9711b810596e","6a270c2e609d6ae583c06396","6a270e5287df46a191507a1a?","30","[15,30,21,18,22,12,29,27,3,24,4,6,9,2,1,16,8,11,17,13,23,10,26,14,5,25,20,19,7,28]","[""U15"",""U30"",""P21"",""P18"",""P22"",""U12"",""P29"",""U27"",""U3"",""P24"",""P4"",""U6"",""P9"",""P2"",""P1"",""U16"",""P8"",""P11"",""P17"",""U13"",""P23"",""U10"",""P26"",""P14"",""U5"",""U25"",""P20"",""P19"",""P7"",""P28""]","[""P15"",""P30"",""U21"",""U18"",""U22"",""P12"",""U29"",""P27"",""P3"",""U24"",""U4"",""P6"",""U9"",""U2"",""U1"",""P16"",""U8"",""U11"",""U17"",""P13"",""U23"",""P10"",""U26"",""U14"",""P5"",""P25"",""U20"",""U19"",""U7"",""U28""]","4","4","0","0","1","1","","null","[""tea_v2.mp4""]","null","segmentation_video","","","","","","","","","tea_v2.mp4","tea","Unpredictable","[1.212781,3.10727,6.012103,8.336656,11.124798,14.346278,18.218066,21.381971,24.294589,25.69171,27.877363,28.980904]","12","","U27","27","1","8","1.1035409999999999","false","false","false","","false","0","0","false","false","false","false",""
"","","","","","survey-multi-choice","47","2.0.0","485168","85","1","2026-06-08 18:49:28","segmentation_norming_randomized_order_maxrun_attention_v4","146.198.38.80","Mozilla/5.0 (Windows NT 10.0; Win64; x64) AppleWebKit/537.36 (KHTML, like Gecko) Chrome/148.0.0.0 Safari/537.36","WebKit","Chrome","148.0.0.0","Windows","10.0","https://uencdihehs.cognition.run/?PROLIFIC_PID=6a0ecfa37f0d9711b810596e&STUDY_ID=6a270c2e609d6ae583c06396&STUDY_ID=6a270c2e609d6ae583c06396&SESSION_ID=6a270e5287df46a191507a1a?PROLIFIC_PID=6a0ecfa37f0d9711b810596e&SESSION_ID=6a270e5287df46a191507a1a?","en-GB,en;q=0.9","6a0ecfa37f0d9711b810596e","6a270c2e609d6ae583c06396","6a270e5287df46a191507a1a?","6a0ecfa37f0d9711b810596e","6a270c2e609d6ae583c06396","6a270e5287df46a191507a1a?","30","[15,30,21,18,22,12,29,27,3,24,4,6,9,2,1,16,8,11,17,13,23,10,26,14,5,25,20,19,7,28]","[""U15"",""U30"",""P21"",""P18"",""P22"",""U12"",""P29"",""U27"",""U3"",""P24"",""P4"",""U6"",""P9"",""P2"",""P1"",""U16"",""P8"",""P11"",""P17"",""U13"",""P23"",""U10"",""P26"",""P14"",""U5"",""U25"",""P20"",""P19"",""P7"",""P28""]","[""P15"",""P30"",""U21"",""U18"",""U22"",""P12"",""U29"",""P27"",""P3"",""U24"",""U4"",""P6"",""U9"",""U2"",""U1"",""P16"",""U8"",""U11"",""U17"",""P13"",""U23"",""P10"",""U26"",""U14"",""P5"",""P25"",""U20"",""U19"",""U7"",""U28""]","4","4","0","0","1","1","","2806","","{""confidence_rating"":""Moderately confident""}","confidence_question","[0]","","","","","","","","","tea","Unpredictable","","","","U27","27","1","8","","","","","","","","","","","","","Moderately confident"
"","","","","","video-keyboard-response","48","2.0.0","504399","85","1","2026-06-08 18:49:28","segmentation_norming_randomized_order_maxrun_attention_v4","146.198.38.80","Mozilla/5.0 (Windows NT 10.0; Win64; x64) AppleWebKit/537.36 (KHTML, like Gecko) Chrome/148.0.0.0 Safari/537.36","WebKit","Chrome","148.0.0.0","Windows","10.0","https://uencdihehs.cognition.run/?PROLIFIC_PID=6a0ecfa37f0d9711b810596e&STUDY_ID=6a270c2e609d6ae583c06396&STUDY_ID=6a270c2e609d6ae583c06396&SESSION_ID=6a270e5287df46a191507a1a?PROLIFIC_PID=6a0ecfa37f0d9711b810596e&SESSION_ID=6a270e5287df46a191507a1a?","en-GB,en;q=0.9","6a0ecfa37f0d9711b810596e","6a270c2e609d6ae583c06396","6a270e5287df46a191507a1a?","6a0ecfa37f0d9711b810596e","6a270c2e609d6ae583c06396","6a270e5287df46a191507a1a?","30","[15,30,21,18,22,12,29,27,3,24,4,6,9,2,1,16,8,11,17,13,23,10,26,14,5,25,20,19,7,28]","[""U15"",""U30"",""P21"",""P18"",""P22"",""U12"",""P29"",""U27"",""U3"",""P24"",""P4"",""U6"",""P9"",""P2"",""P1"",""U16"",""P8"",""P11"",""P17"",""U13"",""P23"",""U10"",""P26"",""P14"",""U5"",""U25"",""P20"",""P19"",""P7"",""P28""]","[""P15"",""P30"",""U21"",""U18"",""U22"",""P12"",""U29"",""P27"",""P3"",""U24"",""U4"",""P6"",""U9"",""U2"",""U1"",""P16"",""U8"",""U11"",""U17"",""P13"",""U23"",""P10"",""U26"",""U14"",""P5"",""P25"",""U20"",""U19"",""U7"",""U28""]","4","4","0","0","1","1","","null","[""bank_v2.mp4""]","null","segmentation_video","","","","","","","","","bank_v2.mp4","bank","Unpredictable","[1.266126,2.857893,4.206224,6.786669,8.850003,11.306256,13.127691,16.651531,18.15143]","9","","U3","3","1","9","1.348331","false","false","false","","false","0","0","false","false","false","false",""
"","","","","","survey-multi-choice","51","2.0.0","507000","85","1","2026-06-08 18:49:28","segmentation_norming_randomized_order_maxrun_attention_v4","146.198.38.80","Mozilla/5.0 (Windows NT 10.0; Win64; x64) AppleWebKit/537.36 (KHTML, like Gecko) Chrome/148.0.0.0 Safari/537.36","WebKit","Chrome","148.0.0.0","Windows","10.0","https://uencdihehs.cognition.run/?PROLIFIC_PID=6a0ecfa37f0d9711b810596e&STUDY_ID=6a270c2e609d6ae583c06396&STUDY_ID=6a270c2e609d6ae583c06396&SESSION_ID=6a270e5287df46a191507a1a?PROLIFIC_PID=6a0ecfa37f0d9711b810596e&SESSION_ID=6a270e5287df46a191507a1a?","en-GB,en;q=0.9","6a0ecfa37f0d9711b810596e","6a270c2e609d6ae583c06396","6a270e5287df46a191507a1a?","6a0ecfa37f0d9711b810596e","6a270c2e609d6ae583c06396","6a270e5287df46a191507a1a?","30","[15,30,21,18,22,12,29,27,3,24,4,6,9,2,1,16,8,11,17,13,23,10,26,14,5,25,20,19,7,28]","[""U15"",""U30"",""P21"",""P18"",""P22"",""U12"",""P29"",""U27"",""U3"",""P24"",""P4"",""U6"",""P9"",""P2"",""P1"",""U16"",""P8"",""P11"",""P17"",""U13"",""P23"",""U10"",""P26"",""P14"",""U5"",""U25"",""P20"",""P19"",""P7"",""P28""]","[""P15"",""P30"",""U21"",""U18"",""U22"",""P12"",""U29"",""P27"",""P3"",""U24"",""U4"",""P6"",""U9"",""U2"",""U1"",""P16"",""U8"",""U11"",""U17"",""P13"",""U23"",""P10"",""U26"",""U14"",""P5"",""P25"",""U20"",""U19"",""U7"",""U28""]","4","4","0","0","1","1","","2598","","{""confidence_rating"":""Moderately confident""}","confidence_question","[0]","","","","","","","","","bank","Unpredictable","","","","U3","3","1","9","","","","","","","","","","","","","Moderately confident"
"","","","","","video-keyboard-response","52","2.0.0","531259","85","1","2026-06-08 18:49:28","segmentation_norming_randomized_order_maxrun_attention_v4","146.198.38.80","Mozilla/5.0 (Windows NT 10.0; Win64; x64) AppleWebKit/537.36 (KHTML, like Gecko) Chrome/148.0.0.0 Safari/537.36","WebKit","Chrome","148.0.0.0","Windows","10.0","https://uencdihehs.cognition.run/?PROLIFIC_PID=6a0ecfa37f0d9711b810596e&STUDY_ID=6a270c2e609d6ae583c06396&STUDY_ID=6a270c2e609d6ae583c06396&SESSION_ID=6a270e5287df46a191507a1a?PROLIFIC_PID=6a0ecfa37f0d9711b810596e&SESSION_ID=6a270e5287df46a191507a1a?","en-GB,en;q=0.9","6a0ecfa37f0d9711b810596e","6a270c2e609d6ae583c06396","6a270e5287df46a191507a1a?","6a0ecfa37f0d9711b810596e","6a270c2e609d6ae583c06396","6a270e5287df46a191507a1a?","30","[15,30,21,18,22,12,29,27,3,24,4,6,9,2,1,16,8,11,17,13,23,10,26,14,5,25,20,19,7,28]","[""U15"",""U30"",""P21"",""P18"",""P22"",""U12"",""P29"",""U27"",""U3"",""P24"",""P4"",""U6"",""P9"",""P2"",""P1"",""U16"",""P8"",""P11"",""P17"",""U13"",""P23"",""U10"",""P26"",""P14"",""U5"",""U25"",""P20"",""P19"",""P7"",""P28""]","[""P15"",""P30"",""U21"",""U18"",""U22"",""P12"",""U29"",""P27"",""P3"",""U24"",""U4"",""P6"",""U9"",""U2"",""U1"",""P16"",""U8"",""U11"",""U17"",""P13"",""U23"",""P10"",""U26"",""U14"",""P5"",""P25"",""U20"",""U19"",""U7"",""U28""]","4","4","0","0","1","1","","null","[""skateboard_v1.mp4""]","null","segmentation_video","","","","","","","","","skateboard_v1.mp4","skateboard","Predictable","[1.32632,3.327663,5.72711,10.957011,14.847585,15.634206,17.394291,19.288863,21.695936,23.975533]","10","","P24","24","1","10","0.7866210000000002","false","false","false","","false","0","0","false","false","false","false",""
"","","","","","survey-multi-choice","55","2.0.0","534773","85","1","2026-06-08 18:49:28","segmentation_norming_randomized_order_maxrun_attention_v4","146.198.38.80","Mozilla/5.0 (Windows NT 10.0; Win64; x64) AppleWebKit/537.36 (KHTML, like Gecko) Chrome/148.0.0.0 Safari/537.36","WebKit","Chrome","148.0.0.0","Windows","10.0","https://uencdihehs.cognition.run/?PROLIFIC_PID=6a0ecfa37f0d9711b810596e&STUDY_ID=6a270c2e609d6ae583c06396&STUDY_ID=6a270c2e609d6ae583c06396&SESSION_ID=6a270e5287df46a191507a1a?PROLIFIC_PID=6a0ecfa37f0d9711b810596e&SESSION_ID=6a270e5287df46a191507a1a?","en-GB,en;q=0.9","6a0ecfa37f0d9711b810596e","6a270c2e609d6ae583c06396","6a270e5287df46a191507a1a?","6a0ecfa37f0d9711b810596e","6a270c2e609d6ae583c06396","6a270e5287df46a191507a1a?","30","[15,30,21,18,22,12,29,27,3,24,4,6,9,2,1,16,8,11,17,13,23,10,26,14,5,25,20,19,7,28]","[""U15"",""U30"",""P21"",""P18"",""P22"",""U12"",""P29"",""U27"",""U3"",""P24"",""P4"",""U6"",""P9"",""P2"",""P1"",""U16"",""P8"",""P11"",""P17"",""U13"",""P23"",""U10"",""P26"",""P14"",""U5"",""U25"",""P20"",""P19"",""P7"",""P28""]","[""P15"",""P30"",""U21"",""U18"",""U22"",""P12"",""U29"",""P27"",""P3"",""U24"",""U4"",""P6"",""U9"",""U2"",""U1"",""P16"",""U8"",""U11"",""U17"",""P13"",""U23"",""P10"",""U26"",""U14"",""P5"",""P25"",""U20"",""U19"",""U7"",""U28""]","4","4","0","0","1","1","","3510","","{""confidence_rating"":""Slightly unconfident""}","confidence_question","[0]","","","","","","","","","skateboard","Predictable","","","","P24","24","1","10","","","","","","","","","","","","","Slightly unconfident"
"","","","","","video-keyboard-response","56","2.0.0","569998","85","1","2026-06-08 18:49:28","segmentation_norming_randomized_order_maxrun_attention_v4","146.198.38.80","Mozilla/5.0 (Windows NT 10.0; Win64; x64) AppleWebKit/537.36 (KHTML, like Gecko) Chrome/148.0.0.0 Safari/537.36","WebKit","Chrome","148.0.0.0","Windows","10.0","https://uencdihehs.cognition.run/?PROLIFIC_PID=6a0ecfa37f0d9711b810596e&STUDY_ID=6a270c2e609d6ae583c06396&STUDY_ID=6a270c2e609d6ae583c06396&SESSION_ID=6a270e5287df46a191507a1a?PROLIFIC_PID=6a0ecfa37f0d9711b810596e&SESSION_ID=6a270e5287df46a191507a1a?","en-GB,en;q=0.9","6a0ecfa37f0d9711b810596e","6a270c2e609d6ae583c06396","6a270e5287df46a191507a1a?","6a0ecfa37f0d9711b810596e","6a270c2e609d6ae583c06396","6a270e5287df46a191507a1a?","30","[15,30,21,18,22,12,29,27,3,24,4,6,9,2,1,16,8,11,17,13,23,10,26,14,5,25,20,19,7,28]","[""U15"",""U30"",""P21"",""P18"",""P22"",""U12"",""P29"",""U27"",""U3"",""P24"",""P4"",""U6"",""P9"",""P2"",""P1"",""U16"",""P8"",""P11"",""P17"",""U13"",""P23"",""U10"",""P26"",""P14"",""U5"",""U25"",""P20"",""P19"",""P7"",""P28""]","[""P15"",""P30"",""U21"",""U18"",""U22"",""P12"",""U29"",""P27"",""P3"",""U24"",""U4"",""P6"",""U9"",""U2"",""U1"",""P16"",""U8"",""U11"",""U17"",""P13"",""U23"",""P10"",""U26"",""U14"",""P5"",""P25"",""U20"",""U19"",""U7"",""U28""]","4","4","0","0","1","1","","null","[""bathroom_v1.mp4""]","null","segmentation_video","","","","","","","","","bathroom_v1.mp4","bathroom","Predictable","[2.176504,3.337997,4.457989,6.104833,7.225443,9.538292,11.47818,13.948676,15.941964,17.257979,18.15535,20.102308,22.454173,23.907484,24.988707,26.666302,29.591805,32.902329,35.026278]","19","","P4","4","1","11","0.8973709999999997","false","false","false","","false","0","0","false","false","false","false",""
"","","","","","survey-multi-choice","59","2.0.0","572389","85","1","2026-06-08 18:49:28","segmentation_norming_randomized_order_maxrun_attention_v4","146.198.38.80","Mozilla/5.0 (Windows NT 10.0; Win64; x64) AppleWebKit/537.36 (KHTML, like Gecko) Chrome/148.0.0.0 Safari/537.36","WebKit","Chrome","148.0.0.0","Windows","10.0","https://uencdihehs.cognition.run/?PROLIFIC_PID=6a0ecfa37f0d9711b810596e&STUDY_ID=6a270c2e609d6ae583c06396&STUDY_ID=6a270c2e609d6ae583c06396&SESSION_ID=6a270e5287df46a191507a1a?PROLIFIC_PID=6a0ecfa37f0d9711b810596e&SESSION_ID=6a270e5287df46a191507a1a?","en-GB,en;q=0.9","6a0ecfa37f0d9711b810596e","6a270c2e609d6ae583c06396","6a270e5287df46a191507a1a?","6a0ecfa37f0d9711b810596e","6a270c2e609d6ae583c06396","6a270e5287df46a191507a1a?","30","[15,30,21,18,22,12,29,27,3,24,4,6,9,2,1,16,8,11,17,13,23,10,26,14,5,25,20,19,7,28]","[""U15"",""U30"",""P21"",""P18"",""P22"",""U12"",""P29"",""U27"",""U3"",""P24"",""P4"",""U6"",""P9"",""P2"",""P1"",""U16"",""P8"",""P11"",""P17"",""U13"",""P23"",""U10"",""P26"",""P14"",""U5"",""U25"",""P20"",""P19"",""P7"",""P28""]","[""P15"",""P30"",""U21"",""U18"",""U22"",""P12"",""U29"",""P27"",""P3"",""U24"",""U4"",""P6"",""U9"",""U2"",""U1"",""P16"",""U8"",""U11"",""U17"",""P13"",""U23"",""P10"",""U26"",""U14"",""P5"",""P25"",""U20"",""U19"",""U7"",""U28""]","4","4","0","0","1","1","","2388","","{""confidence_rating"":""Slightly unconfident""}","confidence_question","[0]","","","","","","","","","bathroom","Predictable","","","","P4","4","1","11","","","","","","","","","","","","","Slightly unconfident"
"","","","","","video-keyboard-response","60","2.0.0","607198","85","1","2026-06-08 18:49:28","segmentation_norming_randomized_order_maxrun_attention_v4","146.198.38.80","Mozilla/5.0 (Windows NT 10.0; Win64; x64) AppleWebKit/537.36 (KHTML, like Gecko) Chrome/148.0.0.0 Safari/537.36","WebKit","Chrome","148.0.0.0","Windows","10.0","https://uencdihehs.cognition.run/?PROLIFIC_PID=6a0ecfa37f0d9711b810596e&STUDY_ID=6a270c2e609d6ae583c06396&STUDY_ID=6a270c2e609d6ae583c06396&SESSION_ID=6a270e5287df46a191507a1a?PROLIFIC_PID=6a0ecfa37f0d9711b810596e&SESSION_ID=6a270e5287df46a191507a1a?","en-GB,en;q=0.9","6a0ecfa37f0d9711b810596e","6a270c2e609d6ae583c06396","6a270e5287df46a191507a1a?","6a0ecfa37f0d9711b810596e","6a270c2e609d6ae583c06396","6a270e5287df46a191507a1a?","30","[15,30,21,18,22,12,29,27,3,24,4,6,9,2,1,16,8,11,17,13,23,10,26,14,5,25,20,19,7,28]","[""U15"",""U30"",""P21"",""P18"",""P22"",""U12"",""P29"",""U27"",""U3"",""P24"",""P4"",""U6"",""P9"",""P2"",""P1"",""U16"",""P8"",""P11"",""P17"",""U13"",""P23"",""U10"",""P26"",""P14"",""U5"",""U25"",""P20"",""P19"",""P7"",""P28""]","[""P15"",""P30"",""U21"",""U18"",""U22"",""P12"",""U29"",""P27"",""P3"",""U24"",""U4"",""P6"",""U9"",""U2"",""U1"",""P16"",""U8"",""U11"",""U17"",""P13"",""U23"",""P10"",""U26"",""U14"",""P5"",""P25"",""U20"",""U19"",""U7"",""U28""]","4","4","0","0","1","1","","null","[""bedding_v2.mp4""]","null","segmentation_video","","","","","","","","","bedding_v2.mp4","bedding","Unpredictable","[1.243708,4.40895,7.651701,10.025421,11.818854,17.772739,20.58616,25.087443,26.375713,29.239877,31.003344,32.590009,34.211307]","13","","U6","6","1","12","1.2882700000000007","false","false","false","","false","0","0","false","false","false","false",""
"","","","","","survey-multi-choice","63","2.0.0","609618","85","1","2026-06-08 18:49:28","segmentation_norming_randomized_order_maxrun_attention_v4","146.198.38.80","Mozilla/5.0 (Windows NT 10.0; Win64; x64) AppleWebKit/537.36 (KHTML, like Gecko) Chrome/148.0.0.0 Safari/537.36","WebKit","Chrome","148.0.0.0","Windows","10.0","https://uencdihehs.cognition.run/?PROLIFIC_PID=6a0ecfa37f0d9711b810596e&STUDY_ID=6a270c2e609d6ae583c06396&STUDY_ID=6a270c2e609d6ae583c06396&SESSION_ID=6a270e5287df46a191507a1a?PROLIFIC_PID=6a0ecfa37f0d9711b810596e&SESSION_ID=6a270e5287df46a191507a1a?","en-GB,en;q=0.9","6a0ecfa37f0d9711b810596e","6a270c2e609d6ae583c06396","6a270e5287df46a191507a1a?","6a0ecfa37f0d9711b810596e","6a270c2e609d6ae583c06396","6a270e5287df46a191507a1a?","30","[15,30,21,18,22,12,29,27,3,24,4,6,9,2,1,16,8,11,17,13,23,10,26,14,5,25,20,19,7,28]","[""U15"",""U30"",""P21"",""P18"",""P22"",""U12"",""P29"",""U27"",""U3"",""P24"",""P4"",""U6"",""P9"",""P2"",""P1"",""U16"",""P8"",""P11"",""P17"",""U13"",""P23"",""U10"",""P26"",""P14"",""U5"",""U25"",""P20"",""P19"",""P7"",""P28""]","[""P15"",""P30"",""U21"",""U18"",""U22"",""P12"",""U29"",""P27"",""P3"",""U24"",""U4"",""P6"",""U9"",""U2"",""U1"",""P16"",""U8"",""U11"",""U17"",""P13"",""U23"",""P10"",""U26"",""U14"",""P5"",""P25"",""U20"",""U19"",""U7"",""U28""]","4","4","0","0","1","1","","2417","","{""confidence_rating"":""Moderately confident""}","confidence_question","[0]","","","","","","","","","bedding","Unpredictable","","","","U6","6","1","12","","","","","","","","","","","","","Moderately confident"
"","","","","","video-keyboard-response","64","2.0.0","647438","85","1","2026-06-08 18:49:28","segmentation_norming_randomized_order_maxrun_attention_v4","146.198.38.80","Mozilla/5.0 (Windows NT 10.0; Win64; x64) AppleWebKit/537.36 (KHTML, like Gecko) Chrome/148.0.0.0 Safari/537.36","WebKit","Chrome","148.0.0.0","Windows","10.0","https://uencdihehs.cognition.run/?PROLIFIC_PID=6a0ecfa37f0d9711b810596e&STUDY_ID=6a270c2e609d6ae583c06396&STUDY_ID=6a270c2e609d6ae583c06396&SESSION_ID=6a270e5287df46a191507a1a?PROLIFIC_PID=6a0ecfa37f0d9711b810596e&SESSION_ID=6a270e5287df46a191507a1a?","en-GB,en;q=0.9","6a0ecfa37f0d9711b810596e","6a270c2e609d6ae583c06396","6a270e5287df46a191507a1a?","6a0ecfa37f0d9711b810596e","6a270c2e609d6ae583c06396","6a270e5287df46a191507a1a?","30","[15,30,21,18,22,12,29,27,3,24,4,6,9,2,1,16,8,11,17,13,23,10,26,14,5,25,20,19,7,28]","[""U15"",""U30"",""P21"",""P18"",""P22"",""U12"",""P29"",""U27"",""U3"",""P24"",""P4"",""U6"",""P9"",""P2"",""P1"",""U16"",""P8"",""P11"",""P17"",""U13"",""P23"",""U10"",""P26"",""P14"",""U5"",""U25"",""P20"",""P19"",""P7"",""P28""]","[""P15"",""P30"",""U21"",""U18"",""U22"",""P12"",""U29"",""P27"",""P3"",""U24"",""U4"",""P6"",""U9"",""U2"",""U1"",""P16"",""U8"",""U11"",""U17"",""P13"",""U23"",""P10"",""U26"",""U14"",""P5"",""P25"",""U20"",""U19"",""U7"",""U28""]","4","4","0","0","1","1","","null","[""cereal_v1.mp4""]","null","segmentation_video","","","","","","","","","cereal_v1.mp4","cereal","Predictable","[1.127487,2.918594,4.101901,6.021853,10.046513,11.998663,14.065948,16.711538,20.810533,21.751841,24.730122,26.706156,29.00248,31.799758,33.356791,35.431964]","16","","P9","9","1","13","0.9413079999999994","false","false","false","","false","0","0","false","false","false","false",""
"","","","","","survey-multi-choice","67","2.0.0","650301","85","1","2026-06-08 18:49:28","segmentation_norming_randomized_order_maxrun_attention_v4","146.198.38.80","Mozilla/5.0 (Windows NT 10.0; Win64; x64) AppleWebKit/537.36 (KHTML, like Gecko) Chrome/148.0.0.0 Safari/537.36","WebKit","Chrome","148.0.0.0","Windows","10.0","https://uencdihehs.cognition.run/?PROLIFIC_PID=6a0ecfa37f0d9711b810596e&STUDY_ID=6a270c2e609d6ae583c06396&STUDY_ID=6a270c2e609d6ae583c06396&SESSION_ID=6a270e5287df46a191507a1a?PROLIFIC_PID=6a0ecfa37f0d9711b810596e&SESSION_ID=6a270e5287df46a191507a1a?","en-GB,en;q=0.9","6a0ecfa37f0d9711b810596e","6a270c2e609d6ae583c06396","6a270e5287df46a191507a1a?","6a0ecfa37f0d9711b810596e","6a270c2e609d6ae583c06396","6a270e5287df46a191507a1a?","30","[15,30,21,18,22,12,29,27,3,24,4,6,9,2,1,16,8,11,17,13,23,10,26,14,5,25,20,19,7,28]","[""U15"",""U30"",""P21"",""P18"",""P22"",""U12"",""P29"",""U27"",""U3"",""P24"",""P4"",""U6"",""P9"",""P2"",""P1"",""U16"",""P8"",""P11"",""P17"",""U13"",""P23"",""U10"",""P26"",""P14"",""U5"",""U25"",""P20"",""P19"",""P7"",""P28""]","[""P15"",""P30"",""U21"",""U18"",""U22"",""P12"",""U29"",""P27"",""P3"",""U24"",""U4"",""P6"",""U9"",""U2"",""U1"",""P16"",""U8"",""U11"",""U17"",""P13"",""U23"",""P10"",""U26"",""U14"",""P5"",""P25"",""U20"",""U19"",""U7"",""U28""]","4","4","0","0","1","1","","2858","","{""confidence_rating"":""Slightly unconfident""}","confidence_question","[0]","","","","","","","","","cereal","Predictable","","","","P9","9","1","13","","","","","","","","","","","","","Slightly unconfident"
"","","","","","video-keyboard-response","68","2.0.0","678158","85","1","2026-06-08 18:49:28","segmentation_norming_randomized_order_maxrun_attention_v4","146.198.38.80","Mozilla/5.0 (Windows NT 10.0; Win64; x64) AppleWebKit/537.36 (KHTML, like Gecko) Chrome/148.0.0.0 Safari/537.36","WebKit","Chrome","148.0.0.0","Windows","10.0","https://uencdihehs.cognition.run/?PROLIFIC_PID=6a0ecfa37f0d9711b810596e&STUDY_ID=6a270c2e609d6ae583c06396&STUDY_ID=6a270c2e609d6ae583c06396&SESSION_ID=6a270e5287df46a191507a1a?PROLIFIC_PID=6a0ecfa37f0d9711b810596e&SESSION_ID=6a270e5287df46a191507a1a?","en-GB,en;q=0.9","6a0ecfa37f0d9711b810596e","6a270c2e609d6ae583c06396","6a270e5287df46a191507a1a?","6a0ecfa37f0d9711b810596e","6a270c2e609d6ae583c06396","6a270e5287df46a191507a1a?","30","[15,30,21,18,22,12,29,27,3,24,4,6,9,2,1,16,8,11,17,13,23,10,26,14,5,25,20,19,7,28]","[""U15"",""U30"",""P21"",""P18"",""P22"",""U12"",""P29"",""U27"",""U3"",""P24"",""P4"",""U6"",""P9"",""P2"",""P1"",""U16"",""P8"",""P11"",""P17"",""U13"",""P23"",""U10"",""P26"",""P14"",""U5"",""U25"",""P20"",""P19"",""P7"",""P28""]","[""P15"",""P30"",""U21"",""U18"",""U22"",""P12"",""U29"",""P27"",""P3"",""U24"",""U4"",""P6"",""U9"",""U2"",""U1"",""P16"",""U8"",""U11"",""U17"",""P13"",""U23"",""P10"",""U26"",""U14"",""P5"",""P25"",""U20"",""U19"",""U7"",""U28""]","4","4","0","0","1","1","","null","[""balcony_v1.mp4""]","null","segmentation_video","","","","","","","","","balcony_v1.mp4","balcony","Predictable","[0.820182,2.904916,4.837238,6.126291,7.717152,9.86496,11.612457,14.523466,19.338334,20.8129,22.711682,24.059329,25.435455,27.583513]","14","","P2","2","1","14","1.289053","false","false","false","","false","0","0","false","false","false","false",""
"","","","","","survey-multi-choice","71","2.0.0","680510","85","1","2026-06-08 18:49:28","segmentation_norming_randomized_order_maxrun_attention_v4","146.198.38.80","Mozilla/5.0 (Windows NT 10.0; Win64; x64) AppleWebKit/537.36 (KHTML, like Gecko) Chrome/148.0.0.0 Safari/537.36","WebKit","Chrome","148.0.0.0","Windows","10.0","https://uencdihehs.cognition.run/?PROLIFIC_PID=6a0ecfa37f0d9711b810596e&STUDY_ID=6a270c2e609d6ae583c06396&STUDY_ID=6a270c2e609d6ae583c06396&SESSION_ID=6a270e5287df46a191507a1a?PROLIFIC_PID=6a0ecfa37f0d9711b810596e&SESSION_ID=6a270e5287df46a191507a1a?","en-GB,en;q=0.9","6a0ecfa37f0d9711b810596e","6a270c2e609d6ae583c06396","6a270e5287df46a191507a1a?","6a0ecfa37f0d9711b810596e","6a270c2e609d6ae583c06396","6a270e5287df46a191507a1a?","30","[15,30,21,18,22,12,29,27,3,24,4,6,9,2,1,16,8,11,17,13,23,10,26,14,5,25,20,19,7,28]","[""U15"",""U30"",""P21"",""P18"",""P22"",""U12"",""P29"",""U27"",""U3"",""P24"",""P4"",""U6"",""P9"",""P2"",""P1"",""U16"",""P8"",""P11"",""P17"",""U13"",""P23"",""U10"",""P26"",""P14"",""U5"",""U25"",""P20"",""P19"",""P7"",""P28""]","[""P15"",""P30"",""U21"",""U18"",""U22"",""P12"",""U29"",""P27"",""P3"",""U24"",""U4"",""P6"",""U9"",""U2"",""U1"",""P16"",""U8"",""U11"",""U17"",""P13"",""U23"",""P10"",""U26"",""U14"",""P5"",""P25"",""U20"",""U19"",""U7"",""U28""]","4","4","0","0","1","1","","2348","","{""confidence_rating"":""Moderately confident""}","confidence_question","[0]","","","","","","","","","balcony","Predictable","","","","P2","2","1","14","","","","","","","","","","","","","Moderately confident"
"","","","","","video-keyboard-response","72","2.0.0","709379","85","1","2026-06-08 18:49:28","segmentation_norming_randomized_order_maxrun_attention_v4","146.198.38.80","Mozilla/5.0 (Windows NT 10.0; Win64; x64) AppleWebKit/537.36 (KHTML, like Gecko) Chrome/148.0.0.0 Safari/537.36","WebKit","Chrome","148.0.0.0","Windows","10.0","https://uencdihehs.cognition.run/?PROLIFIC_PID=6a0ecfa37f0d9711b810596e&STUDY_ID=6a270c2e609d6ae583c06396&STUDY_ID=6a270c2e609d6ae583c06396&SESSION_ID=6a270e5287df46a191507a1a?PROLIFIC_PID=6a0ecfa37f0d9711b810596e&SESSION_ID=6a270e5287df46a191507a1a?","en-GB,en;q=0.9","6a0ecfa37f0d9711b810596e","6a270c2e609d6ae583c06396","6a270e5287df46a191507a1a?","6a0ecfa37f0d9711b810596e","6a270c2e609d6ae583c06396","6a270e5287df46a191507a1a?","30","[15,30,21,18,22,12,29,27,3,24,4,6,9,2,1,16,8,11,17,13,23,10,26,14,5,25,20,19,7,28]","[""U15"",""U30"",""P21"",""P18"",""P22"",""U12"",""P29"",""U27"",""U3"",""P24"",""P4"",""U6"",""P9"",""P2"",""P1"",""U16"",""P8"",""P11"",""P17"",""U13"",""P23"",""U10"",""P26"",""P14"",""U5"",""U25"",""P20"",""P19"",""P7"",""P28""]","[""P15"",""P30"",""U21"",""U18"",""U22"",""P12"",""U29"",""P27"",""P3"",""U24"",""U4"",""P6"",""U9"",""U2"",""U1"",""P16"",""U8"",""U11"",""U17"",""P13"",""U23"",""P10"",""U26"",""U14"",""P5"",""P25"",""U20"",""U19"",""U7"",""U28""]","4","4","0","0","1","1","","null","[""baking_v1.mp4""]","null","segmentation_video","","","","","","","","","baking_v1.mp4","baking","Predictable","[1.719573,4.466285,8.778475,15.14249,19.544696,21.411758,22.779527,24.543463,28.206257]","9","","P1","1","1","15","1.3677690000000027","false","false","false","","false","0","0","false","false","false","false",""
"","","","","","survey-multi-choice","75","2.0.0","711676","85","1","2026-06-08 18:49:28","segmentation_norming_randomized_order_maxrun_attention_v4","146.198.38.80","Mozilla/5.0 (Windows NT 10.0; Win64; x64) AppleWebKit/537.36 (KHTML, like Gecko) Chrome/148.0.0.0 Safari/537.36","WebKit","Chrome","148.0.0.0","Windows","10.0","https://uencdihehs.cognition.run/?PROLIFIC_PID=6a0ecfa37f0d9711b810596e&STUDY_ID=6a270c2e609d6ae583c06396&STUDY_ID=6a270c2e609d6ae583c06396&SESSION_ID=6a270e5287df46a191507a1a?PROLIFIC_PID=6a0ecfa37f0d9711b810596e&SESSION_ID=6a270e5287df46a191507a1a?","en-GB,en;q=0.9","6a0ecfa37f0d9711b810596e","6a270c2e609d6ae583c06396","6a270e5287df46a191507a1a?","6a0ecfa37f0d9711b810596e","6a270c2e609d6ae583c06396","6a270e5287df46a191507a1a?","30","[15,30,21,18,22,12,29,27,3,24,4,6,9,2,1,16,8,11,17,13,23,10,26,14,5,25,20,19,7,28]","[""U15"",""U30"",""P21"",""P18"",""P22"",""U12"",""P29"",""U27"",""U3"",""P24"",""P4"",""U6"",""P9"",""P2"",""P1"",""U16"",""P8"",""P11"",""P17"",""U13"",""P23"",""U10"",""P26"",""P14"",""U5"",""U25"",""P20"",""P19"",""P7"",""P28""]","[""P15"",""P30"",""U21"",""U18"",""U22"",""P12"",""U29"",""P27"",""P3"",""U24"",""U4"",""P6"",""U9"",""U2"",""U1"",""P16"",""U8"",""U11"",""U17"",""P13"",""U23"",""P10"",""U26"",""U14"",""P5"",""P25"",""U20"",""U19"",""U7"",""U28""]","4","4","0","0","1","1","","2294","","{""confidence_rating"":""Moderately confident""}","confidence_question","[0]","","","","","","","","","baking","Predictable","","","","P1","1","1","15","","","","","","","","","","","","","Moderately confident"
"","","","","","video-keyboard-response","76","2.0.0","741557","85","1","2026-06-08 18:49:28","segmentation_norming_randomized_order_maxrun_attention_v4","146.198.38.80","Mozilla/5.0 (Windows NT 10.0; Win64; x64) AppleWebKit/537.36 (KHTML, like Gecko) Chrome/148.0.0.0 Safari/537.36","WebKit","Chrome","148.0.0.0","Windows","10.0","https://uencdihehs.cognition.run/?PROLIFIC_PID=6a0ecfa37f0d9711b810596e&STUDY_ID=6a270c2e609d6ae583c06396&STUDY_ID=6a270c2e609d6ae583c06396&SESSION_ID=6a270e5287df46a191507a1a?PROLIFIC_PID=6a0ecfa37f0d9711b810596e&SESSION_ID=6a270e5287df46a191507a1a?","en-GB,en;q=0.9","6a0ecfa37f0d9711b810596e","6a270c2e609d6ae583c06396","6a270e5287df46a191507a1a?","6a0ecfa37f0d9711b810596e","6a270c2e609d6ae583c06396","6a270e5287df46a191507a1a?","30","[15,30,21,18,22,12,29,27,3,24,4,6,9,2,1,16,8,11,17,13,23,10,26,14,5,25,20,19,7,28]","[""U15"",""U30"",""P21"",""P18"",""P22"",""U12"",""P29"",""U27"",""U3"",""P24"",""P4"",""U6"",""P9"",""P2"",""P1"",""U16"",""P8"",""P11"",""P17"",""U13"",""P23"",""U10"",""P26"",""P14"",""U5"",""U25"",""P20"",""P19"",""P7"",""P28""]","[""P15"",""P30"",""U21"",""U18"",""U22"",""P12"",""U29"",""P27"",""P3"",""U24"",""U4"",""P6"",""U9"",""U2"",""U1"",""P16"",""U8"",""U11"",""U17"",""P13"",""U23"",""P10"",""U26"",""U14"",""P5"",""P25"",""U20"",""U19"",""U7"",""U28""]","4","4","0","0","1","1","","null","[""mouse_v2.mp4""]","null","segmentation_video","","","","","","","","","mouse_v2.mp4","mouse","Unpredictable","[2.652799,6.588856,8.556999,10.758137,13.447343,16.696366,17.873345,21.347941,24.504772,26.382163,27.975506,29.578167]","12","","U16","16","1","16","1.1769789999999993","false","false","false","","false","0","0","false","false","false","false",""
"","","","","","survey-multi-choice","79","2.0.0","744029","85","1","2026-06-08 18:49:28","segmentation_norming_randomized_order_maxrun_attention_v4","146.198.38.80","Mozilla/5.0 (Windows NT 10.0; Win64; x64) AppleWebKit/537.36 (KHTML, like Gecko) Chrome/148.0.0.0 Safari/537.36","WebKit","Chrome","148.0.0.0","Windows","10.0","https://uencdihehs.cognition.run/?PROLIFIC_PID=6a0ecfa37f0d9711b810596e&STUDY_ID=6a270c2e609d6ae583c06396&STUDY_ID=6a270c2e609d6ae583c06396&SESSION_ID=6a270e5287df46a191507a1a?PROLIFIC_PID=6a0ecfa37f0d9711b810596e&SESSION_ID=6a270e5287df46a191507a1a?","en-GB,en;q=0.9","6a0ecfa37f0d9711b810596e","6a270c2e609d6ae583c06396","6a270e5287df46a191507a1a?","6a0ecfa37f0d9711b810596e","6a270c2e609d6ae583c06396","6a270e5287df46a191507a1a?","30","[15,30,21,18,22,12,29,27,3,24,4,6,9,2,1,16,8,11,17,13,23,10,26,14,5,25,20,19,7,28]","[""U15"",""U30"",""P21"",""P18"",""P22"",""U12"",""P29"",""U27"",""U3"",""P24"",""P4"",""U6"",""P9"",""P2"",""P1"",""U16"",""P8"",""P11"",""P17"",""U13"",""P23"",""U10"",""P26"",""P14"",""U5"",""U25"",""P20"",""P19"",""P7"",""P28""]","[""P15"",""P30"",""U21"",""U18"",""U22"",""P12"",""U29"",""P27"",""P3"",""U24"",""U4"",""P6"",""U9"",""U2"",""U1"",""P16"",""U8"",""U11"",""U17"",""P13"",""U23"",""P10"",""U26"",""U14"",""P5"",""P25"",""U20"",""U19"",""U7"",""U28""]","4","4","0","0","1","1","","2470","","{""confidence_rating"":""Moderately confident""}","confidence_question","[0]","","","","","","","","","mouse","Unpredictable","","","","U16","16","1","16","","","","","","","","","","","","","Moderately confident"
"","","","","","video-keyboard-response","80","2.0.0","783599","85","1","2026-06-08 18:49:28","segmentation_norming_randomized_order_maxrun_attention_v4","146.198.38.80","Mozilla/5.0 (Windows NT 10.0; Win64; x64) AppleWebKit/537.36 (KHTML, like Gecko) Chrome/148.0.0.0 Safari/537.36","WebKit","Chrome","148.0.0.0","Windows","10.0","https://uencdihehs.cognition.run/?PROLIFIC_PID=6a0ecfa37f0d9711b810596e&STUDY_ID=6a270c2e609d6ae583c06396&STUDY_ID=6a270c2e609d6ae583c06396&SESSION_ID=6a270e5287df46a191507a1a?PROLIFIC_PID=6a0ecfa37f0d9711b810596e&SESSION_ID=6a270e5287df46a191507a1a?","en-GB,en;q=0.9","6a0ecfa37f0d9711b810596e","6a270c2e609d6ae583c06396","6a270e5287df46a191507a1a?","6a0ecfa37f0d9711b810596e","6a270c2e609d6ae583c06396","6a270e5287df46a191507a1a?","30","[15,30,21,18,22,12,29,27,3,24,4,6,9,2,1,16,8,11,17,13,23,10,26,14,5,25,20,19,7,28]","[""U15"",""U30"",""P21"",""P18"",""P22"",""U12"",""P29"",""U27"",""U3"",""P24"",""P4"",""U6"",""P9"",""P2"",""P1"",""U16"",""P8"",""P11"",""P17"",""U13"",""P23"",""U10"",""P26"",""P14"",""U5"",""U25"",""P20"",""P19"",""P7"",""P28""]","[""P15"",""P30"",""U21"",""U18"",""U22"",""P12"",""U29"",""P27"",""P3"",""U24"",""U4"",""P6"",""U9"",""U2"",""U1"",""P16"",""U8"",""U11"",""U17"",""P13"",""U23"",""P10"",""U26"",""U14"",""P5"",""P25"",""U20"",""U19"",""U7"",""U28""]","4","4","0","0","1","1","","null","[""car_v1.mp4""]","null","segmentation_video","","","","","","","","","car_v1.mp4","car","Predictable","[1.763573,2.982018,3.815591,5.862245,7.18612,10.389603,12.791723,14.39923,17.056841,20.322569,24.611793,29.759504,31.591545,37.090474]","14","","P8","8","1","17","0.8335729999999999","false","false","false","","false","0","0","false","false","false","false",""
"","","","","","survey-multi-choice","83","2.0.0","786213","85","1","2026-06-08 18:49:28","segmentation_norming_randomized_order_maxrun_attention_v4","146.198.38.80","Mozilla/5.0 (Windows NT 10.0; Win64; x64) AppleWebKit/537.36 (KHTML, like Gecko) Chrome/148.0.0.0 Safari/537.36","WebKit","Chrome","148.0.0.0","Windows","10.0","https://uencdihehs.cognition.run/?PROLIFIC_PID=6a0ecfa37f0d9711b810596e&STUDY_ID=6a270c2e609d6ae583c06396&STUDY_ID=6a270c2e609d6ae583c06396&SESSION_ID=6a270e5287df46a191507a1a?PROLIFIC_PID=6a0ecfa37f0d9711b810596e&SESSION_ID=6a270e5287df46a191507a1a?","en-GB,en;q=0.9","6a0ecfa37f0d9711b810596e","6a270c2e609d6ae583c06396","6a270e5287df46a191507a1a?","6a0ecfa37f0d9711b810596e","6a270c2e609d6ae583c06396","6a270e5287df46a191507a1a?","30","[15,30,21,18,22,12,29,27,3,24,4,6,9,2,1,16,8,11,17,13,23,10,26,14,5,25,20,19,7,28]","[""U15"",""U30"",""P21"",""P18"",""P22"",""U12"",""P29"",""U27"",""U3"",""P24"",""P4"",""U6"",""P9"",""P2"",""P1"",""U16"",""P8"",""P11"",""P17"",""U13"",""P23"",""U10"",""P26"",""P14"",""U5"",""U25"",""P20"",""P19"",""P7"",""P28""]","[""P15"",""P30"",""U21"",""U18"",""U22"",""P12"",""U29"",""P27"",""P3"",""U24"",""U4"",""P6"",""U9"",""U2"",""U1"",""P16"",""U8"",""U11"",""U17"",""P13"",""U23"",""P10"",""U26"",""U14"",""P5"",""P25"",""U20"",""U19"",""U7"",""U28""]","4","4","0","0","1","1","","2610","","{""confidence_rating"":""Moderately confident""}","confidence_question","[0]","","","","","","","","","car","Predictable","","","","P8","8","1","17","","","","","","","","","","","","","Moderately confident"
"","","","","","video-keyboard-response","84","2.0.0","817318","85","1","2026-06-08 18:49:28","segmentation_norming_randomized_order_maxrun_attention_v4","146.198.38.80","Mozilla/5.0 (Windows NT 10.0; Win64; x64) AppleWebKit/537.36 (KHTML, like Gecko) Chrome/148.0.0.0 Safari/537.36","WebKit","Chrome","148.0.0.0","Windows","10.0","https://uencdihehs.cognition.run/?PROLIFIC_PID=6a0ecfa37f0d9711b810596e&STUDY_ID=6a270c2e609d6ae583c06396&STUDY_ID=6a270c2e609d6ae583c06396&SESSION_ID=6a270e5287df46a191507a1a?PROLIFIC_PID=6a0ecfa37f0d9711b810596e&SESSION_ID=6a270e5287df46a191507a1a?","en-GB,en;q=0.9","6a0ecfa37f0d9711b810596e","6a270c2e609d6ae583c06396","6a270e5287df46a191507a1a?","6a0ecfa37f0d9711b810596e","6a270c2e609d6ae583c06396","6a270e5287df46a191507a1a?","30","[15,30,21,18,22,12,29,27,3,24,4,6,9,2,1,16,8,11,17,13,23,10,26,14,5,25,20,19,7,28]","[""U15"",""U30"",""P21"",""P18"",""P22"",""U12"",""P29"",""U27"",""U3"",""P24"",""P4"",""U6"",""P9"",""P2"",""P1"",""U16"",""P8"",""P11"",""P17"",""U13"",""P23"",""U10"",""P26"",""P14"",""U5"",""U25"",""P20"",""P19"",""P7"",""P28""]","[""P15"",""P30"",""U21"",""U18"",""U22"",""P12"",""U29"",""P27"",""P3"",""U24"",""U4"",""P6"",""U9"",""U2"",""U1"",""P16"",""U8"",""U11"",""U17"",""P13"",""U23"",""P10"",""U26"",""U14"",""P5"",""P25"",""U20"",""U19"",""U7"",""U28""]","4","4","0","0","1","1","","null","[""fireplace_v1.mp4""]","null","segmentation_video","","","","","","","","","fireplace_v1.mp4","fireplace","Predictable","[1.127263,2.626962,5.478188,6.484812,8.938939,10.327497,14.740911,16.416095,17.062197,19.064942,19.928982,23.323476,25.692884,28.686926]","14","","P11","11","1","18","0.6461020000000026","false","false","false","","false","0","0","false","false","false","false",""
"","","","","","survey-multi-choice","87","2.0.0","820716","85","1","2026-06-08 18:49:28","segmentation_norming_randomized_order_maxrun_attention_v4","146.198.38.80","Mozilla/5.0 (Windows NT 10.0; Win64; x64) AppleWebKit/537.36 (KHTML, like Gecko) Chrome/148.0.0.0 Safari/537.36","WebKit","Chrome","148.0.0.0","Windows","10.0","https://uencdihehs.cognition.run/?PROLIFIC_PID=6a0ecfa37f0d9711b810596e&STUDY_ID=6a270c2e609d6ae583c06396&STUDY_ID=6a270c2e609d6ae583c06396&SESSION_ID=6a270e5287df46a191507a1a?PROLIFIC_PID=6a0ecfa37f0d9711b810596e&SESSION_ID=6a270e5287df46a191507a1a?","en-GB,en;q=0.9","6a0ecfa37f0d9711b810596e","6a270c2e609d6ae583c06396","6a270e5287df46a191507a1a?","6a0ecfa37f0d9711b810596e","6a270c2e609d6ae583c06396","6a270e5287df46a191507a1a?","30","[15,30,21,18,22,12,29,27,3,24,4,6,9,2,1,16,8,11,17,13,23,10,26,14,5,25,20,19,7,28]","[""U15"",""U30"",""P21"",""P18"",""P22"",""U12"",""P29"",""U27"",""U3"",""P24"",""P4"",""U6"",""P9"",""P2"",""P1"",""U16"",""P8"",""P11"",""P17"",""U13"",""P23"",""U10"",""P26"",""P14"",""U5"",""U25"",""P20"",""P19"",""P7"",""P28""]","[""P15"",""P30"",""U21"",""U18"",""U22"",""P12"",""U29"",""P27"",""P3"",""U24"",""U4"",""P6"",""U9"",""U2"",""U1"",""P16"",""U8"",""U11"",""U17"",""P13"",""U23"",""P10"",""U26"",""U14"",""P5"",""P25"",""U20"",""U19"",""U7"",""U28""]","4","4","0","0","1","1","","3395","","{""confidence_rating"":""Very unconfident""}","confidence_question","[0]","","","","","","","","","fireplace","Predictable","","","","P11","11","1","18","","","","","","","","","","","","","Very unconfident"
"","","","","","video-keyboard-response","88","2.0.0","858979","85","1","2026-06-08 18:49:28","segmentation_norming_randomized_order_maxrun_attention_v4","146.198.38.80","Mozilla/5.0 (Windows NT 10.0; Win64; x64) AppleWebKit/537.36 (KHTML, like Gecko) Chrome/148.0.0.0 Safari/537.36","WebKit","Chrome","148.0.0.0","Windows","10.0","https://uencdihehs.cognition.run/?PROLIFIC_PID=6a0ecfa37f0d9711b810596e&STUDY_ID=6a270c2e609d6ae583c06396&STUDY_ID=6a270c2e609d6ae583c06396&SESSION_ID=6a270e5287df46a191507a1a?PROLIFIC_PID=6a0ecfa37f0d9711b810596e&SESSION_ID=6a270e5287df46a191507a1a?","en-GB,en;q=0.9","6a0ecfa37f0d9711b810596e","6a270c2e609d6ae583c06396","6a270e5287df46a191507a1a?","6a0ecfa37f0d9711b810596e","6a270c2e609d6ae583c06396","6a270e5287df46a191507a1a?","30","[15,30,21,18,22,12,29,27,3,24,4,6,9,2,1,16,8,11,17,13,23,10,26,14,5,25,20,19,7,28]","[""U15"",""U30"",""P21"",""P18"",""P22"",""U12"",""P29"",""U27"",""U3"",""P24"",""P4"",""U6"",""P9"",""P2"",""P1"",""U16"",""P8"",""P11"",""P17"",""U13"",""P23"",""U10"",""P26"",""P14"",""U5"",""U25"",""P20"",""P19"",""P7"",""P28""]","[""P15"",""P30"",""U21"",""U18"",""U22"",""P12"",""U29"",""P27"",""P3"",""U24"",""U4"",""P6"",""U9"",""U2"",""U1"",""P16"",""U8"",""U11"",""U17"",""P13"",""U23"",""P10"",""U26"",""U14"",""P5"",""P25"",""U20"",""U19"",""U7"",""U28""]","4","4","0","0","1","1","","null","[""music_v1.mp4""]","null","segmentation_video","","","","","","","","","music_v1.mp4","music","Predictable","[1.898226,6.605384,10.960922,14.324846,17.898485,20.615482,22.498377,24.391327,30.138598,31.881976,35.246044,37.091732]","12","","P17","17","1","19","1.7433779999999999","false","false","false","","false","0","0","false","false","false","false",""
"","","","","","survey-multi-choice","91","2.0.0","861300","85","1","2026-06-08 18:49:28","segmentation_norming_randomized_order_maxrun_attention_v4","146.198.38.80","Mozilla/5.0 (Windows NT 10.0; Win64; x64) AppleWebKit/537.36 (KHTML, like Gecko) Chrome/148.0.0.0 Safari/537.36","WebKit","Chrome","148.0.0.0","Windows","10.0","https://uencdihehs.cognition.run/?PROLIFIC_PID=6a0ecfa37f0d9711b810596e&STUDY_ID=6a270c2e609d6ae583c06396&STUDY_ID=6a270c2e609d6ae583c06396&SESSION_ID=6a270e5287df46a191507a1a?PROLIFIC_PID=6a0ecfa37f0d9711b810596e&SESSION_ID=6a270e5287df46a191507a1a?","en-GB,en;q=0.9","6a0ecfa37f0d9711b810596e","6a270c2e609d6ae583c06396","6a270e5287df46a191507a1a?","6a0ecfa37f0d9711b810596e","6a270c2e609d6ae583c06396","6a270e5287df46a191507a1a?","30","[15,30,21,18,22,12,29,27,3,24,4,6,9,2,1,16,8,11,17,13,23,10,26,14,5,25,20,19,7,28]","[""U15"",""U30"",""P21"",""P18"",""P22"",""U12"",""P29"",""U27"",""U3"",""P24"",""P4"",""U6"",""P9"",""P2"",""P1"",""U16"",""P8"",""P11"",""P17"",""U13"",""P23"",""U10"",""P26"",""P14"",""U5"",""U25"",""P20"",""P19"",""P7"",""P28""]","[""P15"",""P30"",""U21"",""U18"",""U22"",""P12"",""U29"",""P27"",""P3"",""U24"",""U4"",""P6"",""U9"",""U2"",""U1"",""P16"",""U8"",""U11"",""U17"",""P13"",""U23"",""P10"",""U26"",""U14"",""P5"",""P25"",""U20"",""U19"",""U7"",""U28""]","4","4","0","0","1","1","","2318","","{""confidence_rating"":""Moderately confident""}","confidence_question","[0]","","","","","","","","","music","Predictable","","","","P17","17","1","19","","","","","","","","","","","","","Moderately confident"
"","","","","","video-keyboard-response","92","2.0.0","890719","85","1","2026-06-08 18:49:28","segmentation_norming_randomized_order_maxrun_attention_v4","146.198.38.80","Mozilla/5.0 (Windows NT 10.0; Win64; x64) AppleWebKit/537.36 (KHTML, like Gecko) Chrome/148.0.0.0 Safari/537.36","WebKit","Chrome","148.0.0.0","Windows","10.0","https://uencdihehs.cognition.run/?PROLIFIC_PID=6a0ecfa37f0d9711b810596e&STUDY_ID=6a270c2e609d6ae583c06396&STUDY_ID=6a270c2e609d6ae583c06396&SESSION_ID=6a270e5287df46a191507a1a?PROLIFIC_PID=6a0ecfa37f0d9711b810596e&SESSION_ID=6a270e5287df46a191507a1a?","en-GB,en;q=0.9","6a0ecfa37f0d9711b810596e","6a270c2e609d6ae583c06396","6a270e5287df46a191507a1a?","6a0ecfa37f0d9711b810596e","6a270c2e609d6ae583c06396","6a270e5287df46a191507a1a?","30","[15,30,21,18,22,12,29,27,3,24,4,6,9,2,1,16,8,11,17,13,23,10,26,14,5,25,20,19,7,28]","[""U15"",""U30"",""P21"",""P18"",""P22"",""U12"",""P29"",""U27"",""U3"",""P24"",""P4"",""U6"",""P9"",""P2"",""P1"",""U16"",""P8"",""P11"",""P17"",""U13"",""P23"",""U10"",""P26"",""P14"",""U5"",""U25"",""P20"",""P19"",""P7"",""P28""]","[""P15"",""P30"",""U21"",""U18"",""U22"",""P12"",""U29"",""P27"",""P3"",""U24"",""U4"",""P6"",""U9"",""U2"",""U1"",""P16"",""U8"",""U11"",""U17"",""P13"",""U23"",""P10"",""U26"",""U14"",""P5"",""P25"",""U20"",""U19"",""U7"",""U28""]","4","4","0","0","1","1","","null","[""gym_v2.mp4""]","null","segmentation_video","","","","","","","","","gym_v2.mp4","gym","Unpredictable","[1.549822,3.11692,4.273898,5.730763,7.474143,8.529339,9.798161,13.951958,15.946042,17.755934,19.7302,21.308961,22.981051,26.009013]","14","","U13","13","1","20","1.0551960000000005","false","false","false","","false","0","0","false","false","false","false",""
"","","","","","survey-multi-choice","95","2.0.0","893667","85","1","2026-06-08 18:49:28","segmentation_norming_randomized_order_maxrun_attention_v4","146.198.38.80","Mozilla/5.0 (Windows NT 10.0; Win64; x64) AppleWebKit/537.36 (KHTML, like Gecko) Chrome/148.0.0.0 Safari/537.36","WebKit","Chrome","148.0.0.0","Windows","10.0","https://uencdihehs.cognition.run/?PROLIFIC_PID=6a0ecfa37f0d9711b810596e&STUDY_ID=6a270c2e609d6ae583c06396&STUDY_ID=6a270c2e609d6ae583c06396&SESSION_ID=6a270e5287df46a191507a1a?PROLIFIC_PID=6a0ecfa37f0d9711b810596e&SESSION_ID=6a270e5287df46a191507a1a?","en-GB,en;q=0.9","6a0ecfa37f0d9711b810596e","6a270c2e609d6ae583c06396","6a270e5287df46a191507a1a?","6a0ecfa37f0d9711b810596e","6a270c2e609d6ae583c06396","6a270e5287df46a191507a1a?","30","[15,30,21,18,22,12,29,27,3,24,4,6,9,2,1,16,8,11,17,13,23,10,26,14,5,25,20,19,7,28]","[""U15"",""U30"",""P21"",""P18"",""P22"",""U12"",""P29"",""U27"",""U3"",""P24"",""P4"",""U6"",""P9"",""P2"",""P1"",""U16"",""P8"",""P11"",""P17"",""U13"",""P23"",""U10"",""P26"",""P14"",""U5"",""U25"",""P20"",""P19"",""P7"",""P28""]","[""P15"",""P30"",""U21"",""U18"",""U22"",""P12"",""U29"",""P27"",""P3"",""U24"",""U4"",""P6"",""U9"",""U2"",""U1"",""P16"",""U8"",""U11"",""U17"",""P13"",""U23"",""P10"",""U26"",""U14"",""P5"",""P25"",""U20"",""U19"",""U7"",""U28""]","4","4","0","0","1","1","","2946","","{""confidence_rating"":""Slightly unconfident""}","confidence_question","[0]","","","","","","","","","gym","Unpredictable","","","","U13","13","1","20","","","","","","","","","","","","","Slightly unconfident"
"","","","","","video-keyboard-response","96","2.0.0","905578","85","1","2026-06-08 18:49:28","segmentation_norming_randomized_order_maxrun_attention_v4","146.198.38.80","Mozilla/5.0 (Windows NT 10.0; Win64; x64) AppleWebKit/537.36 (KHTML, like Gecko) Chrome/148.0.0.0 Safari/537.36","WebKit","Chrome","148.0.0.0","Windows","10.0","https://uencdihehs.cognition.run/?PROLIFIC_PID=6a0ecfa37f0d9711b810596e&STUDY_ID=6a270c2e609d6ae583c06396&STUDY_ID=6a270c2e609d6ae583c06396&SESSION_ID=6a270e5287df46a191507a1a?PROLIFIC_PID=6a0ecfa37f0d9711b810596e&SESSION_ID=6a270e5287df46a191507a1a?","en-GB,en;q=0.9","6a0ecfa37f0d9711b810596e","6a270c2e609d6ae583c06396","6a270e5287df46a191507a1a?","6a0ecfa37f0d9711b810596e","6a270c2e609d6ae583c06396","6a270e5287df46a191507a1a?","30","[15,30,21,18,22,12,29,27,3,24,4,6,9,2,1,16,8,11,17,13,23,10,26,14,5,25,20,19,7,28]","[""U15"",""U30"",""P21"",""P18"",""P22"",""U12"",""P29"",""U27"",""U3"",""P24"",""P4"",""U6"",""P9"",""P2"",""P1"",""U16"",""P8"",""P11"",""P17"",""U13"",""P23"",""U10"",""P26"",""P14"",""U5"",""U25"",""P20"",""P19"",""P7"",""P28""]","[""P15"",""P30"",""U21"",""U18"",""U22"",""P12"",""U29"",""P27"",""P3"",""U24"",""U4"",""P6"",""U9"",""U2"",""U1"",""P16"",""U8"",""U11"",""U17"",""P13"",""U23"",""P10"",""U26"",""U14"",""P5"",""P25"",""U20"",""U19"",""U7"",""U28""]","4","4","0","0","1","1","","null","[""shopping_v1.mp4""]","null","segmentation_video","","","","","","","","","shopping_v1.mp4","shopping","Predictable","[0.79568,2.168745,3.41589,5.570859,8.724818,11.764525]","6","","P23","23","1","21","1.2471450000000002","false","false","false","","false","0","0","false","false","false","false",""
"","","","","","survey-multi-choice","99","2.0.0","908061","85","1","2026-06-08 18:49:28","segmentation_norming_randomized_order_maxrun_attention_v4","146.198.38.80","Mozilla/5.0 (Windows NT 10.0; Win64; x64) AppleWebKit/537.36 (KHTML, like Gecko) Chrome/148.0.0.0 Safari/537.36","WebKit","Chrome","148.0.0.0","Windows","10.0","https://uencdihehs.cognition.run/?PROLIFIC_PID=6a0ecfa37f0d9711b810596e&STUDY_ID=6a270c2e609d6ae583c06396&STUDY_ID=6a270c2e609d6ae583c06396&SESSION_ID=6a270e5287df46a191507a1a?PROLIFIC_PID=6a0ecfa37f0d9711b810596e&SESSION_ID=6a270e5287df46a191507a1a?","en-GB,en;q=0.9","6a0ecfa37f0d9711b810596e","6a270c2e609d6ae583c06396","6a270e5287df46a191507a1a?","6a0ecfa37f0d9711b810596e","6a270c2e609d6ae583c06396","6a270e5287df46a191507a1a?","30","[15,30,21,18,22,12,29,27,3,24,4,6,9,2,1,16,8,11,17,13,23,10,26,14,5,25,20,19,7,28]","[""U15"",""U30"",""P21"",""P18"",""P22"",""U12"",""P29"",""U27"",""U3"",""P24"",""P4"",""U6"",""P9"",""P2"",""P1"",""U16"",""P8"",""P11"",""P17"",""U13"",""P23"",""U10"",""P26"",""P14"",""U5"",""U25"",""P20"",""P19"",""P7"",""P28""]","[""P15"",""P30"",""U21"",""U18"",""U22"",""P12"",""U29"",""P27"",""P3"",""U24"",""U4"",""P6"",""U9"",""U2"",""U1"",""P16"",""U8"",""U11"",""U17"",""P13"",""U23"",""P10"",""U26"",""U14"",""P5"",""P25"",""U20"",""U19"",""U7"",""U28""]","4","4","0","0","1","1","","2478","","{""confidence_rating"":""Slightly unconfident""}","confidence_question","[0]","","","","","","","","","shopping","Predictable","","","","P23","23","1","21","","","","","","","","","","","","","Slightly unconfident"
"","","","","","video-keyboard-response","100","2.0.0","938639","85","1","2026-06-08 18:49:28","segmentation_norming_randomized_order_maxrun_attention_v4","146.198.38.80","Mozilla/5.0 (Windows NT 10.0; Win64; x64) AppleWebKit/537.36 (KHTML, like Gecko) Chrome/148.0.0.0 Safari/537.36","WebKit","Chrome","148.0.0.0","Windows","10.0","https://uencdihehs.cognition.run/?PROLIFIC_PID=6a0ecfa37f0d9711b810596e&STUDY_ID=6a270c2e609d6ae583c06396&STUDY_ID=6a270c2e609d6ae583c06396&SESSION_ID=6a270e5287df46a191507a1a?PROLIFIC_PID=6a0ecfa37f0d9711b810596e&SESSION_ID=6a270e5287df46a191507a1a?","en-GB,en;q=0.9","6a0ecfa37f0d9711b810596e","6a270c2e609d6ae583c06396","6a270e5287df46a191507a1a?","6a0ecfa37f0d9711b810596e","6a270c2e609d6ae583c06396","6a270e5287df46a191507a1a?","30","[15,30,21,18,22,12,29,27,3,24,4,6,9,2,1,16,8,11,17,13,23,10,26,14,5,25,20,19,7,28]","[""U15"",""U30"",""P21"",""P18"",""P22"",""U12"",""P29"",""U27"",""U3"",""P24"",""P4"",""U6"",""P9"",""P2"",""P1"",""U16"",""P8"",""P11"",""P17"",""U13"",""P23"",""U10"",""P26"",""P14"",""U5"",""U25"",""P20"",""P19"",""P7"",""P28""]","[""P15"",""P30"",""U21"",""U18"",""U22"",""P12"",""U29"",""P27"",""P3"",""U24"",""U4"",""P6"",""U9"",""U2"",""U1"",""P16"",""U8"",""U11"",""U17"",""P13"",""U23"",""P10"",""U26"",""U14"",""P5"",""P25"",""U20"",""U19"",""U7"",""U28""]","4","4","0","0","1","1","","null","[""cleaning_v2.mp4""]","null","segmentation_video","","","","","","","","","cleaning_v2.mp4","cleaning","Unpredictable","[1.296804,3.970336,6.744943,10.537378,14.694478,19.021953,20.594019,22.367527,24.881005,28.892911]","10","","U10","10","1","22","1.5720659999999995","false","false","false","","false","0","0","false","false","false","false",""
"","","","","","survey-multi-choice","103","2.0.0","941104","85","1","2026-06-08 18:49:28","segmentation_norming_randomized_order_maxrun_attention_v4","146.198.38.80","Mozilla/5.0 (Windows NT 10.0; Win64; x64) AppleWebKit/537.36 (KHTML, like Gecko) Chrome/148.0.0.0 Safari/537.36","WebKit","Chrome","148.0.0.0","Windows","10.0","https://uencdihehs.cognition.run/?PROLIFIC_PID=6a0ecfa37f0d9711b810596e&STUDY_ID=6a270c2e609d6ae583c06396&STUDY_ID=6a270c2e609d6ae583c06396&SESSION_ID=6a270e5287df46a191507a1a?PROLIFIC_PID=6a0ecfa37f0d9711b810596e&SESSION_ID=6a270e5287df46a191507a1a?","en-GB,en;q=0.9","6a0ecfa37f0d9711b810596e","6a270c2e609d6ae583c06396","6a270e5287df46a191507a1a?","6a0ecfa37f0d9711b810596e","6a270c2e609d6ae583c06396","6a270e5287df46a191507a1a?","30","[15,30,21,18,22,12,29,27,3,24,4,6,9,2,1,16,8,11,17,13,23,10,26,14,5,25,20,19,7,28]","[""U15"",""U30"",""P21"",""P18"",""P22"",""U12"",""P29"",""U27"",""U3"",""P24"",""P4"",""U6"",""P9"",""P2"",""P1"",""U16"",""P8"",""P11"",""P17"",""U13"",""P23"",""U10"",""P26"",""P14"",""U5"",""U25"",""P20"",""P19"",""P7"",""P28""]","[""P15"",""P30"",""U21"",""U18"",""U22"",""P12"",""U29"",""P27"",""P3"",""U24"",""U4"",""P6"",""U9"",""U2"",""U1"",""P16"",""U8"",""U11"",""U17"",""P13"",""U23"",""P10"",""U26"",""U14"",""P5"",""P25"",""U20"",""U19"",""U7"",""U28""]","4","4","0","0","1","1","","2462","","{""confidence_rating"":""Moderately confident""}","confidence_question","[0]","","","","","","","","","cleaning","Unpredictable","","","","U10","10","1","22","","","","","","","","","","","","","Moderately confident"
