"success","timeout","failed_images","failed_audio","failed_video","trial_type","trial_index","plugin_version","time_elapsed","run_id","condition","recorded_at","source_code_version","ip","user_agent","device","browser","browser_version","platform","platform_version","referer","accept_language","PROLIFIC_PID","STUDY_ID","SESSION_ID","subject_id","study_id","session_id","pair_count","randomized_pair_order","block1_codes","block2_codes","max_run_block1","max_run_block2","fullscreen_exit_count","tab_switch_count","video_attention_failure_count","total_attention_violation_count","view_history","rt","stimulus","response","trial_kind","question_order","spacebar_question_answer","attention_question_answer","spacebar_question_correct","attention_question_correct","instruction_check_passed","demo_index","demo_code","stimulus_file","stimulus_name","predictability","boundary_times_sec","boundary_count","value","video_code","pair_number","block","global_position_in_block","min_press_gap_sec","no_press_failure","rapid_press_failure","video_attention_failed","video_attention_failure_type","last_video_had_any_attention_violation","current_video_fullscreen_exit_count","current_video_tab_switch_count","current_video_had_fullscreen_exit","current_video_had_tab_switch","current_video_had_video_attention_failure","skipped_video_debug","confidence_rating"
"true","false","[]","[]","[]","preload","0","2.0.0","1265","102","1","2026-06-08 20:21:54","segmentation_norming_randomized_order_maxrun_attention_v4","142.114.27.159","Mozilla/5.0 (Macintosh; Intel Mac OS X 10_15_7) AppleWebKit/537.36 (KHTML, like Gecko) Chrome/148.0.0.0 Safari/537.36","Macintosh","Chrome","148.0.0.0","OS X","10_15_7","https://uencdihehs.cognition.run/?PROLIFIC_PID=69de557321797141093c1604&STUDY_ID=6a270c2e609d6ae583c06396&STUDY_ID=6a270c2e609d6ae583c06396&SESSION_ID=6a272320e29843fe2680de94?PROLIFIC_PID=69de557321797141093c1604&SESSION_ID=6a272320e29843fe2680de94?","en-US,en;q=0.9","69de557321797141093c1604","6a270c2e609d6ae583c06396","6a272320e29843fe2680de94?","69de557321797141093c1604","6a270c2e609d6ae583c06396","6a272320e29843fe2680de94?","30","[14,25,17,18,10,11,8,5,13,7,1,6,27,4,30,22,23,19,12,9,2,24,28,21,29,20,15,26,16,3]","[""P14"",""P25"",""P17"",""U18"",""U10"",""U11"",""U8"",""P5"",""P13"",""U7"",""P1"",""U6"",""P27"",""U4"",""P30"",""P22"",""U23"",""P19"",""P12"",""U9"",""P2"",""P24"",""P28"",""P21"",""U29"",""U20"",""U15"",""P26"",""U16"",""P3""]","[""U14"",""U25"",""U17"",""P18"",""P10"",""P11"",""P8"",""U5"",""U13"",""P7"",""U1"",""P6"",""U27"",""P4"",""U30"",""U22"",""P23"",""U19"",""U12"",""P9"",""U2"",""U24"",""U28"",""U21"",""P29"",""P20"",""P15"",""U26"",""P16"",""U3""]","4","4","0","0","1","1","","","","","","","","","","","","","","","","","","","","","","","","","","","","","","","","","","","",""
"","","","","","instructions","1","2.0.0","23821","102","1","2026-06-08 20:21:54","segmentation_norming_randomized_order_maxrun_attention_v4","142.114.27.159","Mozilla/5.0 (Macintosh; Intel Mac OS X 10_15_7) AppleWebKit/537.36 (KHTML, like Gecko) Chrome/148.0.0.0 Safari/537.36","Macintosh","Chrome","148.0.0.0","OS X","10_15_7","https://uencdihehs.cognition.run/?PROLIFIC_PID=69de557321797141093c1604&STUDY_ID=6a270c2e609d6ae583c06396&STUDY_ID=6a270c2e609d6ae583c06396&SESSION_ID=6a272320e29843fe2680de94?PROLIFIC_PID=69de557321797141093c1604&SESSION_ID=6a272320e29843fe2680de94?","en-US,en;q=0.9","69de557321797141093c1604","6a270c2e609d6ae583c06396","6a272320e29843fe2680de94?","69de557321797141093c1604","6a270c2e609d6ae583c06396","6a272320e29843fe2680de94?","30","[14,25,17,18,10,11,8,5,13,7,1,6,27,4,30,22,23,19,12,9,2,24,28,21,29,20,15,26,16,3]","[""P14"",""P25"",""P17"",""U18"",""U10"",""U11"",""U8"",""P5"",""P13"",""U7"",""P1"",""U6"",""P27"",""U4"",""P30"",""P22"",""U23"",""P19"",""P12"",""U9"",""P2"",""P24"",""P28"",""P21"",""U29"",""U20"",""U15"",""P26"",""U16"",""P3""]","[""U14"",""U25"",""U17"",""P18"",""P10"",""P11"",""P8"",""U5"",""U13"",""P7"",""U1"",""P6"",""U27"",""P4"",""U30"",""U22"",""P23"",""U19"",""U12"",""P9"",""U2"",""U24"",""U28"",""U21"",""P29"",""P20"",""P15"",""U26"",""P16"",""U3""]","4","4","0","0","1","1","[{""page_index"":0,""viewing_time"":22555}]","22555","","","","","","","","","","","","","","","","","","","","","","","","","","","","","","","","","",""
"true","","","","","fullscreen","2","2.0.0","35192","102","1","2026-06-08 20:21:54","segmentation_norming_randomized_order_maxrun_attention_v4","142.114.27.159","Mozilla/5.0 (Macintosh; Intel Mac OS X 10_15_7) AppleWebKit/537.36 (KHTML, like Gecko) Chrome/148.0.0.0 Safari/537.36","Macintosh","Chrome","148.0.0.0","OS X","10_15_7","https://uencdihehs.cognition.run/?PROLIFIC_PID=69de557321797141093c1604&STUDY_ID=6a270c2e609d6ae583c06396&STUDY_ID=6a270c2e609d6ae583c06396&SESSION_ID=6a272320e29843fe2680de94?PROLIFIC_PID=69de557321797141093c1604&SESSION_ID=6a272320e29843fe2680de94?","en-US,en;q=0.9","69de557321797141093c1604","6a270c2e609d6ae583c06396","6a272320e29843fe2680de94?","69de557321797141093c1604","6a270c2e609d6ae583c06396","6a272320e29843fe2680de94?","30","[14,25,17,18,10,11,8,5,13,7,1,6,27,4,30,22,23,19,12,9,2,24,28,21,29,20,15,26,16,3]","[""P14"",""P25"",""P17"",""U18"",""U10"",""U11"",""U8"",""P5"",""P13"",""U7"",""P1"",""U6"",""P27"",""U4"",""P30"",""P22"",""U23"",""P19"",""P12"",""U9"",""P2"",""P24"",""P28"",""P21"",""U29"",""U20"",""U15"",""P26"",""U16"",""P3""]","[""U14"",""U25"",""U17"",""P18"",""P10"",""P11"",""P8"",""U5"",""U13"",""P7"",""U1"",""P6"",""U27"",""P4"",""U30"",""U22"",""P23"",""U19"",""U12"",""P9"",""U2"",""U24"",""U28"",""U21"",""P29"",""P20"",""P15"",""U26"",""P16"",""U3""]","4","4","0","0","1","1","","10364","","","","","","","","","","","","","","","","","","","","","","","","","","","","","","","","","",""
"","","","","","html-button-response","3","2.0.0","104519","102","1","2026-06-08 20:21:54","segmentation_norming_randomized_order_maxrun_attention_v4","142.114.27.159","Mozilla/5.0 (Macintosh; Intel Mac OS X 10_15_7) AppleWebKit/537.36 (KHTML, like Gecko) Chrome/148.0.0.0 Safari/537.36","Macintosh","Chrome","148.0.0.0","OS X","10_15_7","https://uencdihehs.cognition.run/?PROLIFIC_PID=69de557321797141093c1604&STUDY_ID=6a270c2e609d6ae583c06396&STUDY_ID=6a270c2e609d6ae583c06396&SESSION_ID=6a272320e29843fe2680de94?PROLIFIC_PID=69de557321797141093c1604&SESSION_ID=6a272320e29843fe2680de94?","en-US,en;q=0.9","69de557321797141093c1604","6a270c2e609d6ae583c06396","6a272320e29843fe2680de94?","69de557321797141093c1604","6a270c2e609d6ae583c06396","6a272320e29843fe2680de94?","30","[14,25,17,18,10,11,8,5,13,7,1,6,27,4,30,22,23,19,12,9,2,24,28,21,29,20,15,26,16,3]","[""P14"",""P25"",""P17"",""U18"",""U10"",""U11"",""U8"",""P5"",""P13"",""U7"",""P1"",""U6"",""P27"",""U4"",""P30"",""P22"",""U23"",""P19"",""P12"",""U9"",""P2"",""P24"",""P28"",""P21"",""U29"",""U20"",""U15"",""P26"",""U16"",""P3""]","[""U14"",""U25"",""U17"",""P18"",""P10"",""P11"",""P8"",""U5"",""U13"",""P7"",""U1"",""P6"",""U27"",""P4"",""U30"",""U22"",""P23"",""U19"",""U12"",""P9"",""U2"",""U24"",""U28"",""U21"",""P29"",""P20"",""P15"",""U26"",""P16"",""U3""]","4","4","0","0","1","1","","69326","The experiment requires continuous attention and full-screen participation throughout the task.<br><br>You may be asked to exit the experiment and cancel your participation if you exit Full Screen Mode, switch tabs, or fail to meet the attention criteria more than the allowed number of times.<br><br>Please read the following instructions carefully.","0","","","","","","","","","","","","","","","","","","","","","","","","","","","","","","","",""
"","","","","","instructions","4","2.0.0","148764","102","1","2026-06-08 20:21:54","segmentation_norming_randomized_order_maxrun_attention_v4","142.114.27.159","Mozilla/5.0 (Macintosh; Intel Mac OS X 10_15_7) AppleWebKit/537.36 (KHTML, like Gecko) Chrome/148.0.0.0 Safari/537.36","Macintosh","Chrome","148.0.0.0","OS X","10_15_7","https://uencdihehs.cognition.run/?PROLIFIC_PID=69de557321797141093c1604&STUDY_ID=6a270c2e609d6ae583c06396&STUDY_ID=6a270c2e609d6ae583c06396&SESSION_ID=6a272320e29843fe2680de94?PROLIFIC_PID=69de557321797141093c1604&SESSION_ID=6a272320e29843fe2680de94?","en-US,en;q=0.9","69de557321797141093c1604","6a270c2e609d6ae583c06396","6a272320e29843fe2680de94?","69de557321797141093c1604","6a270c2e609d6ae583c06396","6a272320e29843fe2680de94?","30","[14,25,17,18,10,11,8,5,13,7,1,6,27,4,30,22,23,19,12,9,2,24,28,21,29,20,15,26,16,3]","[""P14"",""P25"",""P17"",""U18"",""U10"",""U11"",""U8"",""P5"",""P13"",""U7"",""P1"",""U6"",""P27"",""U4"",""P30"",""P22"",""U23"",""P19"",""P12"",""U9"",""P2"",""P24"",""P28"",""P21"",""U29"",""U20"",""U15"",""P26"",""U16"",""P3""]","[""U14"",""U25"",""U17"",""P18"",""P10"",""P11"",""P8"",""U5"",""U13"",""P7"",""U1"",""P6"",""U27"",""P4"",""U30"",""U22"",""P23"",""U19"",""U12"",""P9"",""U2"",""U24"",""U28"",""U21"",""P29"",""P20"",""P15"",""U26"",""P16"",""U3""]","4","4","0","0","1","1","[{""page_index"":0,""viewing_time"":44244}]","44244","","","","","","","","","","","","","","","","","","","","","","","","","","","","","","","","","",""
"","","","","","html-button-response","5","2.0.0","198173","102","1","2026-06-08 20:21:54","segmentation_norming_randomized_order_maxrun_attention_v4","142.114.27.159","Mozilla/5.0 (Macintosh; Intel Mac OS X 10_15_7) AppleWebKit/537.36 (KHTML, like Gecko) Chrome/148.0.0.0 Safari/537.36","Macintosh","Chrome","148.0.0.0","OS X","10_15_7","https://uencdihehs.cognition.run/?PROLIFIC_PID=69de557321797141093c1604&STUDY_ID=6a270c2e609d6ae583c06396&STUDY_ID=6a270c2e609d6ae583c06396&SESSION_ID=6a272320e29843fe2680de94?PROLIFIC_PID=69de557321797141093c1604&SESSION_ID=6a272320e29843fe2680de94?","en-US,en;q=0.9","69de557321797141093c1604","6a270c2e609d6ae583c06396","6a272320e29843fe2680de94?","69de557321797141093c1604","6a270c2e609d6ae583c06396","6a272320e29843fe2680de94?","30","[14,25,17,18,10,11,8,5,13,7,1,6,27,4,30,22,23,19,12,9,2,24,28,21,29,20,15,26,16,3]","[""P14"",""P25"",""P17"",""U18"",""U10"",""U11"",""U8"",""P5"",""P13"",""U7"",""P1"",""U6"",""P27"",""U4"",""P30"",""P22"",""U23"",""P19"",""P12"",""U9"",""P2"",""P24"",""P28"",""P21"",""U29"",""U20"",""U15"",""P26"",""U16"",""P3""]","[""U14"",""U25"",""U17"",""P18"",""P10"",""P11"",""P8"",""U5"",""U13"",""P7"",""U1"",""P6"",""U27"",""P4"",""U30"",""U22"",""P23"",""U19"",""U12"",""P9"",""U2"",""U24"",""U28"",""U21"",""P29"",""P20"",""P15"",""U26"",""P16"",""U3""]","4","4","0","0","1","1","","49409","Please pay attention when watching videos and marking boundaries.<br><br>There are several hidden attention criteria to make sure you watch the videos carefully.<br><br>If you fail these hidden criteria more than the allowed number of times, you may be asked to exit the experiment.","0","","","","","","","","","","","","","","","","","","","","","","","","","","","","","","","",""
"","","","","","survey-multi-choice","6","2.0.0","235070","102","1","2026-06-08 20:21:54","segmentation_norming_randomized_order_maxrun_attention_v4","142.114.27.159","Mozilla/5.0 (Macintosh; Intel Mac OS X 10_15_7) AppleWebKit/537.36 (KHTML, like Gecko) Chrome/148.0.0.0 Safari/537.36","Macintosh","Chrome","148.0.0.0","OS X","10_15_7","https://uencdihehs.cognition.run/?PROLIFIC_PID=69de557321797141093c1604&STUDY_ID=6a270c2e609d6ae583c06396&STUDY_ID=6a270c2e609d6ae583c06396&SESSION_ID=6a272320e29843fe2680de94?PROLIFIC_PID=69de557321797141093c1604&SESSION_ID=6a272320e29843fe2680de94?","en-US,en;q=0.9","69de557321797141093c1604","6a270c2e609d6ae583c06396","6a272320e29843fe2680de94?","69de557321797141093c1604","6a270c2e609d6ae583c06396","6a272320e29843fe2680de94?","30","[14,25,17,18,10,11,8,5,13,7,1,6,27,4,30,22,23,19,12,9,2,24,28,21,29,20,15,26,16,3]","[""P14"",""P25"",""P17"",""U18"",""U10"",""U11"",""U8"",""P5"",""P13"",""U7"",""P1"",""U6"",""P27"",""U4"",""P30"",""P22"",""U23"",""P19"",""P12"",""U9"",""P2"",""P24"",""P28"",""P21"",""U29"",""U20"",""U15"",""P26"",""U16"",""P3""]","[""U14"",""U25"",""U17"",""P18"",""P10"",""P11"",""P8"",""U5"",""U13"",""P7"",""U1"",""P6"",""U27"",""P4"",""U30"",""U22"",""P23"",""U19"",""U12"",""P9"",""U2"",""U24"",""U28"",""U21"",""P29"",""P20"",""P15"",""U26"",""P16"",""U3""]","4","4","0","0","1","1","","36893","","{""spacebar_question"":""Between the smallest meaningful events or actions"",""attention_question"":""Press space bar to segment the video""}","comprehension_check","[0,1]","Between the smallest meaningful events or actions","Press space bar to segment the video","true","true","true","","","","","","","","","","","","","","","","","","","","","","","","",""
"","","","","","html-button-response","8","2.0.0","274151","102","1","2026-06-08 20:21:54","segmentation_norming_randomized_order_maxrun_attention_v4","142.114.27.159","Mozilla/5.0 (Macintosh; Intel Mac OS X 10_15_7) AppleWebKit/537.36 (KHTML, like Gecko) Chrome/148.0.0.0 Safari/537.36","Macintosh","Chrome","148.0.0.0","OS X","10_15_7","https://uencdihehs.cognition.run/?PROLIFIC_PID=69de557321797141093c1604&STUDY_ID=6a270c2e609d6ae583c06396&STUDY_ID=6a270c2e609d6ae583c06396&SESSION_ID=6a272320e29843fe2680de94?PROLIFIC_PID=69de557321797141093c1604&SESSION_ID=6a272320e29843fe2680de94?","en-US,en;q=0.9","69de557321797141093c1604","6a270c2e609d6ae583c06396","6a272320e29843fe2680de94?","69de557321797141093c1604","6a270c2e609d6ae583c06396","6a272320e29843fe2680de94?","30","[14,25,17,18,10,11,8,5,13,7,1,6,27,4,30,22,23,19,12,9,2,24,28,21,29,20,15,26,16,3]","[""P14"",""P25"",""P17"",""U18"",""U10"",""U11"",""U8"",""P5"",""P13"",""U7"",""P1"",""U6"",""P27"",""U4"",""P30"",""P22"",""U23"",""P19"",""P12"",""U9"",""P2"",""P24"",""P28"",""P21"",""U29"",""U20"",""U15"",""P26"",""U16"",""P3""]","[""U14"",""U25"",""U17"",""P18"",""P10"",""P11"",""P8"",""U5"",""U13"",""P7"",""U1"",""P6"",""U27"",""P4"",""U30"",""U22"",""P23"",""U19"",""U12"",""P9"",""U2"",""U24"",""U28"",""U21"",""P29"",""P20"",""P15"",""U26"",""P16"",""U3""]","4","4","0","0","1","1","","39081","You have learned the instructions for the task! Here is a demo trial.<br><br>Like what you will do in the main experiment,<br><br> you will watch a movie clip and at the same time mark off the activity in the movie into the <strong>smallest meaningful units</strong> that seem natural and meaningful to you.<br><br>Remember, tap the <strong>SPACE BAR</strong> to mark off a boundary between two <strong>smallest meaningful units</strong> of activity.<br><br>A green bar will appear at the bottom of the screen when you press the button.<br><br>","0","","","","","","","","","","","","","","","","","","","","","","","","","","","","","","","",""
"","","","","","video-keyboard-response","9","2.0.0","291014","102","1","2026-06-08 20:21:54","segmentation_norming_randomized_order_maxrun_attention_v4","142.114.27.159","Mozilla/5.0 (Macintosh; Intel Mac OS X 10_15_7) AppleWebKit/537.36 (KHTML, like Gecko) Chrome/148.0.0.0 Safari/537.36","Macintosh","Chrome","148.0.0.0","OS X","10_15_7","https://uencdihehs.cognition.run/?PROLIFIC_PID=69de557321797141093c1604&STUDY_ID=6a270c2e609d6ae583c06396&STUDY_ID=6a270c2e609d6ae583c06396&SESSION_ID=6a272320e29843fe2680de94?PROLIFIC_PID=69de557321797141093c1604&SESSION_ID=6a272320e29843fe2680de94?","en-US,en;q=0.9","69de557321797141093c1604","6a270c2e609d6ae583c06396","6a272320e29843fe2680de94?","69de557321797141093c1604","6a270c2e609d6ae583c06396","6a272320e29843fe2680de94?","30","[14,25,17,18,10,11,8,5,13,7,1,6,27,4,30,22,23,19,12,9,2,24,28,21,29,20,15,26,16,3]","[""P14"",""P25"",""P17"",""U18"",""U10"",""U11"",""U8"",""P5"",""P13"",""U7"",""P1"",""U6"",""P27"",""U4"",""P30"",""P22"",""U23"",""P19"",""P12"",""U9"",""P2"",""P24"",""P28"",""P21"",""U29"",""U20"",""U15"",""P26"",""U16"",""P3""]","[""U14"",""U25"",""U17"",""P18"",""P10"",""P11"",""P8"",""U5"",""U13"",""P7"",""U1"",""P6"",""U27"",""P4"",""U30"",""U22"",""P23"",""U19"",""U12"",""P9"",""U2"",""U24"",""U28"",""U21"",""P29"",""P20"",""P15"",""U26"",""P16"",""U3""]","4","4","0","0","1","1","","null","[""library_v1.mp4""]","null","demo_video","","","","","","","1","demo1","library_v1.mp4","library","Demo","[]","0","","","","","","","","","","","","","","","","","",""
"","","","","","call-function","10","2.0.0","291015","102","1","2026-06-08 20:21:54","segmentation_norming_randomized_order_maxrun_attention_v4","142.114.27.159","Mozilla/5.0 (Macintosh; Intel Mac OS X 10_15_7) AppleWebKit/537.36 (KHTML, like Gecko) Chrome/148.0.0.0 Safari/537.36","Macintosh","Chrome","148.0.0.0","OS X","10_15_7","https://uencdihehs.cognition.run/?PROLIFIC_PID=69de557321797141093c1604&STUDY_ID=6a270c2e609d6ae583c06396&STUDY_ID=6a270c2e609d6ae583c06396&SESSION_ID=6a272320e29843fe2680de94?PROLIFIC_PID=69de557321797141093c1604&SESSION_ID=6a272320e29843fe2680de94?","en-US,en;q=0.9","69de557321797141093c1604","6a270c2e609d6ae583c06396","6a272320e29843fe2680de94?","69de557321797141093c1604","6a270c2e609d6ae583c06396","6a272320e29843fe2680de94?","30","[14,25,17,18,10,11,8,5,13,7,1,6,27,4,30,22,23,19,12,9,2,24,28,21,29,20,15,26,16,3]","[""P14"",""P25"",""P17"",""U18"",""U10"",""U11"",""U8"",""P5"",""P13"",""U7"",""P1"",""U6"",""P27"",""U4"",""P30"",""P22"",""U23"",""P19"",""P12"",""U9"",""P2"",""P24"",""P28"",""P21"",""U29"",""U20"",""U15"",""P26"",""U16"",""P3""]","[""U14"",""U25"",""U17"",""P18"",""P10"",""P11"",""P8"",""U5"",""U13"",""P7"",""U1"",""P6"",""U27"",""P4"",""U30"",""U22"",""P23"",""U19"",""U12"",""P9"",""U2"",""U24"",""U28"",""U21"",""P29"",""P20"",""P15"",""U26"",""P16"",""U3""]","4","4","0","0","1","1","","","","","","","","","","","","","","","","","","","","","","","","","","","","","","","","","","","",""
"","","","","","html-button-response","11","2.0.0","311975","102","1","2026-06-08 20:21:54","segmentation_norming_randomized_order_maxrun_attention_v4","142.114.27.159","Mozilla/5.0 (Macintosh; Intel Mac OS X 10_15_7) AppleWebKit/537.36 (KHTML, like Gecko) Chrome/148.0.0.0 Safari/537.36","Macintosh","Chrome","148.0.0.0","OS X","10_15_7","https://uencdihehs.cognition.run/?PROLIFIC_PID=69de557321797141093c1604&STUDY_ID=6a270c2e609d6ae583c06396&STUDY_ID=6a270c2e609d6ae583c06396&SESSION_ID=6a272320e29843fe2680de94?PROLIFIC_PID=69de557321797141093c1604&SESSION_ID=6a272320e29843fe2680de94?","en-US,en;q=0.9","69de557321797141093c1604","6a270c2e609d6ae583c06396","6a272320e29843fe2680de94?","69de557321797141093c1604","6a270c2e609d6ae583c06396","6a272320e29843fe2680de94?","30","[14,25,17,18,10,11,8,5,13,7,1,6,27,4,30,22,23,19,12,9,2,24,28,21,29,20,15,26,16,3]","[""P14"",""P25"",""P17"",""U18"",""U10"",""U11"",""U8"",""P5"",""P13"",""U7"",""P1"",""U6"",""P27"",""U4"",""P30"",""P22"",""U23"",""P19"",""P12"",""U9"",""P2"",""P24"",""P28"",""P21"",""U29"",""U20"",""U15"",""P26"",""U16"",""P3""]","[""U14"",""U25"",""U17"",""P18"",""P10"",""P11"",""P8"",""U5"",""U13"",""P7"",""U1"",""P6"",""U27"",""P4"",""U30"",""U22"",""P23"",""U19"",""U12"",""P9"",""U2"",""U24"",""U28"",""U21"",""P29"",""P20"",""P15"",""U26"",""P16"",""U3""]","4","4","0","0","1","1","","20959","Usually people tend to press the button more times than you did.<br><br>As a reminder, press the <strong>SPACE BAR</strong> whenever one <strong>smallest meaningful unit</strong> of activity ends and another begins.<br><br>Let's try another demo trial.<br><br>","0","demo_feedback","","","","","","","","","","","","","","","","","","","","","","","","","","","","","","",""
"","","","","","video-keyboard-response","12","2.0.0","347668","102","1","2026-06-08 20:21:54","segmentation_norming_randomized_order_maxrun_attention_v4","142.114.27.159","Mozilla/5.0 (Macintosh; Intel Mac OS X 10_15_7) AppleWebKit/537.36 (KHTML, like Gecko) Chrome/148.0.0.0 Safari/537.36","Macintosh","Chrome","148.0.0.0","OS X","10_15_7","https://uencdihehs.cognition.run/?PROLIFIC_PID=69de557321797141093c1604&STUDY_ID=6a270c2e609d6ae583c06396&STUDY_ID=6a270c2e609d6ae583c06396&SESSION_ID=6a272320e29843fe2680de94?PROLIFIC_PID=69de557321797141093c1604&SESSION_ID=6a272320e29843fe2680de94?","en-US,en;q=0.9","69de557321797141093c1604","6a270c2e609d6ae583c06396","6a272320e29843fe2680de94?","69de557321797141093c1604","6a270c2e609d6ae583c06396","6a272320e29843fe2680de94?","30","[14,25,17,18,10,11,8,5,13,7,1,6,27,4,30,22,23,19,12,9,2,24,28,21,29,20,15,26,16,3]","[""P14"",""P25"",""P17"",""U18"",""U10"",""U11"",""U8"",""P5"",""P13"",""U7"",""P1"",""U6"",""P27"",""U4"",""P30"",""P22"",""U23"",""P19"",""P12"",""U9"",""P2"",""P24"",""P28"",""P21"",""U29"",""U20"",""U15"",""P26"",""U16"",""P3""]","[""U14"",""U25"",""U17"",""P18"",""P10"",""P11"",""P8"",""U5"",""U13"",""P7"",""U1"",""P6"",""U27"",""P4"",""U30"",""U22"",""P23"",""U19"",""U12"",""P9"",""U2"",""U24"",""U28"",""U21"",""P29"",""P20"",""P15"",""U26"",""P16"",""U3""]","4","4","0","0","1","1","","null","[""garden_v1.mp4""]","null","demo_video","","","","","","","2","demo2","garden_v1.mp4","garden","Demo","[15.734624,21.542137,32.438898]","3","","","","","","","","","","","","","","","","","",""
"","","","","","call-function","13","2.0.0","347669","102","1","2026-06-08 20:21:54","segmentation_norming_randomized_order_maxrun_attention_v4","142.114.27.159","Mozilla/5.0 (Macintosh; Intel Mac OS X 10_15_7) AppleWebKit/537.36 (KHTML, like Gecko) Chrome/148.0.0.0 Safari/537.36","Macintosh","Chrome","148.0.0.0","OS X","10_15_7","https://uencdihehs.cognition.run/?PROLIFIC_PID=69de557321797141093c1604&STUDY_ID=6a270c2e609d6ae583c06396&STUDY_ID=6a270c2e609d6ae583c06396&SESSION_ID=6a272320e29843fe2680de94?PROLIFIC_PID=69de557321797141093c1604&SESSION_ID=6a272320e29843fe2680de94?","en-US,en;q=0.9","69de557321797141093c1604","6a270c2e609d6ae583c06396","6a272320e29843fe2680de94?","69de557321797141093c1604","6a270c2e609d6ae583c06396","6a272320e29843fe2680de94?","30","[14,25,17,18,10,11,8,5,13,7,1,6,27,4,30,22,23,19,12,9,2,24,28,21,29,20,15,26,16,3]","[""P14"",""P25"",""P17"",""U18"",""U10"",""U11"",""U8"",""P5"",""P13"",""U7"",""P1"",""U6"",""P27"",""U4"",""P30"",""P22"",""U23"",""P19"",""P12"",""U9"",""P2"",""P24"",""P28"",""P21"",""U29"",""U20"",""U15"",""P26"",""U16"",""P3""]","[""U14"",""U25"",""U17"",""P18"",""P10"",""P11"",""P8"",""U5"",""U13"",""P7"",""U1"",""P6"",""U27"",""P4"",""U30"",""U22"",""P23"",""U19"",""U12"",""P9"",""U2"",""U24"",""U28"",""U21"",""P29"",""P20"",""P15"",""U26"",""P16"",""U3""]","4","4","0","0","1","1","","","","","","","","","","","","","","","","","","","","","","","","","","","","","","","","","","","",""
"","","","","","html-button-response","14","2.0.0","397957","102","1","2026-06-08 20:21:54","segmentation_norming_randomized_order_maxrun_attention_v4","142.114.27.159","Mozilla/5.0 (Macintosh; Intel Mac OS X 10_15_7) AppleWebKit/537.36 (KHTML, like Gecko) Chrome/148.0.0.0 Safari/537.36","Macintosh","Chrome","148.0.0.0","OS X","10_15_7","https://uencdihehs.cognition.run/?PROLIFIC_PID=69de557321797141093c1604&STUDY_ID=6a270c2e609d6ae583c06396&STUDY_ID=6a270c2e609d6ae583c06396&SESSION_ID=6a272320e29843fe2680de94?PROLIFIC_PID=69de557321797141093c1604&SESSION_ID=6a272320e29843fe2680de94?","en-US,en;q=0.9","69de557321797141093c1604","6a270c2e609d6ae583c06396","6a272320e29843fe2680de94?","69de557321797141093c1604","6a270c2e609d6ae583c06396","6a272320e29843fe2680de94?","30","[14,25,17,18,10,11,8,5,13,7,1,6,27,4,30,22,23,19,12,9,2,24,28,21,29,20,15,26,16,3]","[""P14"",""P25"",""P17"",""U18"",""U10"",""U11"",""U8"",""P5"",""P13"",""U7"",""P1"",""U6"",""P27"",""U4"",""P30"",""P22"",""U23"",""P19"",""P12"",""U9"",""P2"",""P24"",""P28"",""P21"",""U29"",""U20"",""U15"",""P26"",""U16"",""P3""]","[""U14"",""U25"",""U17"",""P18"",""P10"",""P11"",""P8"",""U5"",""U13"",""P7"",""U1"",""P6"",""U27"",""P4"",""U30"",""U22"",""P23"",""U19"",""U12"",""P9"",""U2"",""U24"",""U28"",""U21"",""P29"",""P20"",""P15"",""U26"",""P16"",""U3""]","4","4","0","0","1","1","","50288","Usually people tend to press the button more times than you did.<br><br>As a reminder, press the <strong>SPACE BAR</strong> whenever one <strong>smallest meaningful unit</strong> of activity ends and another begins.<br><br>Let's try another demo trial.<br><br>","0","demo_feedback","","","","","","","","","","","","","","","","","","","","","","","","","","","","","","",""
"","","","","","video-keyboard-response","15","2.0.0","422503","102","1","2026-06-08 20:21:54","segmentation_norming_randomized_order_maxrun_attention_v4","142.114.27.159","Mozilla/5.0 (Macintosh; Intel Mac OS X 10_15_7) AppleWebKit/537.36 (KHTML, like Gecko) Chrome/148.0.0.0 Safari/537.36","Macintosh","Chrome","148.0.0.0","OS X","10_15_7","https://uencdihehs.cognition.run/?PROLIFIC_PID=69de557321797141093c1604&STUDY_ID=6a270c2e609d6ae583c06396&STUDY_ID=6a270c2e609d6ae583c06396&SESSION_ID=6a272320e29843fe2680de94?PROLIFIC_PID=69de557321797141093c1604&SESSION_ID=6a272320e29843fe2680de94?","en-US,en;q=0.9","69de557321797141093c1604","6a270c2e609d6ae583c06396","6a272320e29843fe2680de94?","69de557321797141093c1604","6a270c2e609d6ae583c06396","6a272320e29843fe2680de94?","30","[14,25,17,18,10,11,8,5,13,7,1,6,27,4,30,22,23,19,12,9,2,24,28,21,29,20,15,26,16,3]","[""P14"",""P25"",""P17"",""U18"",""U10"",""U11"",""U8"",""P5"",""P13"",""U7"",""P1"",""U6"",""P27"",""U4"",""P30"",""P22"",""U23"",""P19"",""P12"",""U9"",""P2"",""P24"",""P28"",""P21"",""U29"",""U20"",""U15"",""P26"",""U16"",""P3""]","[""U14"",""U25"",""U17"",""P18"",""P10"",""P11"",""P8"",""U5"",""U13"",""P7"",""U1"",""P6"",""U27"",""P4"",""U30"",""U22"",""P23"",""U19"",""U12"",""P9"",""U2"",""U24"",""U28"",""U21"",""P29"",""P20"",""P15"",""U26"",""P16"",""U3""]","4","4","0","0","1","1","","null","[""vending_v1.mp4""]","null","demo_video","","","","","","","3","demo3","vending_v1.mp4","vending","Demo","[35.413313,6.803183,35.413313,9.496847,35.413313,12.054338,35.413313,15.86217,35.413313,18.188299,35.413313,23.309573]","12","","","","","","","","","","","","","","","","","",""
"","","","","","call-function","16","2.0.0","422505","102","1","2026-06-08 20:21:54","segmentation_norming_randomized_order_maxrun_attention_v4","142.114.27.159","Mozilla/5.0 (Macintosh; Intel Mac OS X 10_15_7) AppleWebKit/537.36 (KHTML, like Gecko) Chrome/148.0.0.0 Safari/537.36","Macintosh","Chrome","148.0.0.0","OS X","10_15_7","https://uencdihehs.cognition.run/?PROLIFIC_PID=69de557321797141093c1604&STUDY_ID=6a270c2e609d6ae583c06396&STUDY_ID=6a270c2e609d6ae583c06396&SESSION_ID=6a272320e29843fe2680de94?PROLIFIC_PID=69de557321797141093c1604&SESSION_ID=6a272320e29843fe2680de94?","en-US,en;q=0.9","69de557321797141093c1604","6a270c2e609d6ae583c06396","6a272320e29843fe2680de94?","69de557321797141093c1604","6a270c2e609d6ae583c06396","6a272320e29843fe2680de94?","30","[14,25,17,18,10,11,8,5,13,7,1,6,27,4,30,22,23,19,12,9,2,24,28,21,29,20,15,26,16,3]","[""P14"",""P25"",""P17"",""U18"",""U10"",""U11"",""U8"",""P5"",""P13"",""U7"",""P1"",""U6"",""P27"",""U4"",""P30"",""P22"",""U23"",""P19"",""P12"",""U9"",""P2"",""P24"",""P28"",""P21"",""U29"",""U20"",""U15"",""P26"",""U16"",""P3""]","[""U14"",""U25"",""U17"",""P18"",""P10"",""P11"",""P8"",""U5"",""U13"",""P7"",""U1"",""P6"",""U27"",""P4"",""U30"",""U22"",""P23"",""U19"",""U12"",""P9"",""U2"",""U24"",""U28"",""U21"",""P29"",""P20"",""P15"",""U26"",""P16"",""U3""]","4","4","0","0","1","1","","","","","","","","","","","","","","","","","","","","","","","","","","","","","","","","","","","",""
"","","","","","html-button-response","17","2.0.0","450446","102","1","2026-06-08 20:21:54","segmentation_norming_randomized_order_maxrun_attention_v4","142.114.27.159","Mozilla/5.0 (Macintosh; Intel Mac OS X 10_15_7) AppleWebKit/537.36 (KHTML, like Gecko) Chrome/148.0.0.0 Safari/537.36","Macintosh","Chrome","148.0.0.0","OS X","10_15_7","https://uencdihehs.cognition.run/?PROLIFIC_PID=69de557321797141093c1604&STUDY_ID=6a270c2e609d6ae583c06396&STUDY_ID=6a270c2e609d6ae583c06396&SESSION_ID=6a272320e29843fe2680de94?PROLIFIC_PID=69de557321797141093c1604&SESSION_ID=6a272320e29843fe2680de94?","en-US,en;q=0.9","69de557321797141093c1604","6a270c2e609d6ae583c06396","6a272320e29843fe2680de94?","69de557321797141093c1604","6a270c2e609d6ae583c06396","6a272320e29843fe2680de94?","30","[14,25,17,18,10,11,8,5,13,7,1,6,27,4,30,22,23,19,12,9,2,24,28,21,29,20,15,26,16,3]","[""P14"",""P25"",""P17"",""U18"",""U10"",""U11"",""U8"",""P5"",""P13"",""U7"",""P1"",""U6"",""P27"",""U4"",""P30"",""P22"",""U23"",""P19"",""P12"",""U9"",""P2"",""P24"",""P28"",""P21"",""U29"",""U20"",""U15"",""P26"",""U16"",""P3""]","[""U14"",""U25"",""U17"",""P18"",""P10"",""P11"",""P8"",""U5"",""U13"",""P7"",""U1"",""P6"",""U27"",""P4"",""U30"",""U22"",""P23"",""U19"",""U12"",""P9"",""U2"",""U24"",""U28"",""U21"",""P29"",""P20"",""P15"",""U26"",""P16"",""U3""]","4","4","0","0","1","1","","27941","Great! Hopefully you got an idea of what a meaningful unit is.<br><br>Remember that there is no right or wrong answer.<br><br>We just want to know which parts of the activity seem natural and meaningful to you.<br><br>Now the main experiment starts.<br><br>For each clip, while watching, remember to press the SPACE BAR whenever one <strong>smallest meaningful unit</strong> of activity ends and another begins.<br><br>","0","demo_feedback","","","","","","","","","","","","","","","","","","","","","","","","","","","","","","",""
"true","false","[]","[]","[]","preload","18","2.0.0","457968","102","1","2026-06-08 20:21:54","segmentation_norming_randomized_order_maxrun_attention_v4","142.114.27.159","Mozilla/5.0 (Macintosh; Intel Mac OS X 10_15_7) AppleWebKit/537.36 (KHTML, like Gecko) Chrome/148.0.0.0 Safari/537.36","Macintosh","Chrome","148.0.0.0","OS X","10_15_7","https://uencdihehs.cognition.run/?PROLIFIC_PID=69de557321797141093c1604&STUDY_ID=6a270c2e609d6ae583c06396&STUDY_ID=6a270c2e609d6ae583c06396&SESSION_ID=6a272320e29843fe2680de94?PROLIFIC_PID=69de557321797141093c1604&SESSION_ID=6a272320e29843fe2680de94?","en-US,en;q=0.9","69de557321797141093c1604","6a270c2e609d6ae583c06396","6a272320e29843fe2680de94?","69de557321797141093c1604","6a270c2e609d6ae583c06396","6a272320e29843fe2680de94?","30","[14,25,17,18,10,11,8,5,13,7,1,6,27,4,30,22,23,19,12,9,2,24,28,21,29,20,15,26,16,3]","[""P14"",""P25"",""P17"",""U18"",""U10"",""U11"",""U8"",""P5"",""P13"",""U7"",""P1"",""U6"",""P27"",""U4"",""P30"",""P22"",""U23"",""P19"",""P12"",""U9"",""P2"",""P24"",""P28"",""P21"",""U29"",""U20"",""U15"",""P26"",""U16"",""P3""]","[""U14"",""U25"",""U17"",""P18"",""P10"",""P11"",""P8"",""U5"",""U13"",""P7"",""U1"",""P6"",""U27"",""P4"",""U30"",""U22"",""P23"",""U19"",""U12"",""P9"",""U2"",""U24"",""U28"",""U21"",""P29"",""P20"",""P15"",""U26"",""P16"",""U3""]","4","4","0","0","1","1","","","","","","","","","","","","","","","","","","","","","","","","","","","","","","","","","","","",""
"","","","","","video-keyboard-response","19","2.0.0","487688","102","1","2026-06-08 20:21:54","segmentation_norming_randomized_order_maxrun_attention_v4","142.114.27.159","Mozilla/5.0 (Macintosh; Intel Mac OS X 10_15_7) AppleWebKit/537.36 (KHTML, like Gecko) Chrome/148.0.0.0 Safari/537.36","Macintosh","Chrome","148.0.0.0","OS X","10_15_7","https://uencdihehs.cognition.run/?PROLIFIC_PID=69de557321797141093c1604&STUDY_ID=6a270c2e609d6ae583c06396&STUDY_ID=6a270c2e609d6ae583c06396&SESSION_ID=6a272320e29843fe2680de94?PROLIFIC_PID=69de557321797141093c1604&SESSION_ID=6a272320e29843fe2680de94?","en-US,en;q=0.9","69de557321797141093c1604","6a270c2e609d6ae583c06396","6a272320e29843fe2680de94?","69de557321797141093c1604","6a270c2e609d6ae583c06396","6a272320e29843fe2680de94?","30","[14,25,17,18,10,11,8,5,13,7,1,6,27,4,30,22,23,19,12,9,2,24,28,21,29,20,15,26,16,3]","[""P14"",""P25"",""P17"",""U18"",""U10"",""U11"",""U8"",""P5"",""P13"",""U7"",""P1"",""U6"",""P27"",""U4"",""P30"",""P22"",""U23"",""P19"",""P12"",""U9"",""P2"",""P24"",""P28"",""P21"",""U29"",""U20"",""U15"",""P26"",""U16"",""P3""]","[""U14"",""U25"",""U17"",""P18"",""P10"",""P11"",""P8"",""U5"",""U13"",""P7"",""U1"",""P6"",""U27"",""P4"",""U30"",""U22"",""P23"",""U19"",""U12"",""P9"",""U2"",""U24"",""U28"",""U21"",""P29"",""P20"",""P15"",""U26"",""P16"",""U3""]","4","4","0","0","1","1","","null","[""lamp_v1.mp4""]","null","segmentation_video","","","","","","","","","lamp_v1.mp4","lamp","Predictable","[6.486727,11.00069,19.439205,25.715226]","4","","P14","14","1","1","4.513963","false","false","false","","false","0","0","false","false","false","false",""
"","","","","","survey-multi-choice","22","2.0.0","503204","102","1","2026-06-08 20:21:54","segmentation_norming_randomized_order_maxrun_attention_v4","142.114.27.159","Mozilla/5.0 (Macintosh; Intel Mac OS X 10_15_7) AppleWebKit/537.36 (KHTML, like Gecko) Chrome/148.0.0.0 Safari/537.36","Macintosh","Chrome","148.0.0.0","OS X","10_15_7","https://uencdihehs.cognition.run/?PROLIFIC_PID=69de557321797141093c1604&STUDY_ID=6a270c2e609d6ae583c06396&STUDY_ID=6a270c2e609d6ae583c06396&SESSION_ID=6a272320e29843fe2680de94?PROLIFIC_PID=69de557321797141093c1604&SESSION_ID=6a272320e29843fe2680de94?","en-US,en;q=0.9","69de557321797141093c1604","6a270c2e609d6ae583c06396","6a272320e29843fe2680de94?","69de557321797141093c1604","6a270c2e609d6ae583c06396","6a272320e29843fe2680de94?","30","[14,25,17,18,10,11,8,5,13,7,1,6,27,4,30,22,23,19,12,9,2,24,28,21,29,20,15,26,16,3]","[""P14"",""P25"",""P17"",""U18"",""U10"",""U11"",""U8"",""P5"",""P13"",""U7"",""P1"",""U6"",""P27"",""U4"",""P30"",""P22"",""U23"",""P19"",""P12"",""U9"",""P2"",""P24"",""P28"",""P21"",""U29"",""U20"",""U15"",""P26"",""U16"",""P3""]","[""U14"",""U25"",""U17"",""P18"",""P10"",""P11"",""P8"",""U5"",""U13"",""P7"",""U1"",""P6"",""U27"",""P4"",""U30"",""U22"",""P23"",""U19"",""U12"",""P9"",""U2"",""U24"",""U28"",""U21"",""P29"",""P20"",""P15"",""U26"",""P16"",""U3""]","4","4","0","0","1","1","","15512","","{""confidence_rating"":""Very confident""}","confidence_question","[0]","","","","","","","","","lamp","Predictable","","","","P14","14","1","1","","","","","","","","","","","","","Very confident"
"","","","","","video-keyboard-response","23","2.0.0","530623","102","1","2026-06-08 20:21:54","segmentation_norming_randomized_order_maxrun_attention_v4","142.114.27.159","Mozilla/5.0 (Macintosh; Intel Mac OS X 10_15_7) AppleWebKit/537.36 (KHTML, like Gecko) Chrome/148.0.0.0 Safari/537.36","Macintosh","Chrome","148.0.0.0","OS X","10_15_7","https://uencdihehs.cognition.run/?PROLIFIC_PID=69de557321797141093c1604&STUDY_ID=6a270c2e609d6ae583c06396&STUDY_ID=6a270c2e609d6ae583c06396&SESSION_ID=6a272320e29843fe2680de94?PROLIFIC_PID=69de557321797141093c1604&SESSION_ID=6a272320e29843fe2680de94?","en-US,en;q=0.9","69de557321797141093c1604","6a270c2e609d6ae583c06396","6a272320e29843fe2680de94?","69de557321797141093c1604","6a270c2e609d6ae583c06396","6a272320e29843fe2680de94?","30","[14,25,17,18,10,11,8,5,13,7,1,6,27,4,30,22,23,19,12,9,2,24,28,21,29,20,15,26,16,3]","[""P14"",""P25"",""P17"",""U18"",""U10"",""U11"",""U8"",""P5"",""P13"",""U7"",""P1"",""U6"",""P27"",""U4"",""P30"",""P22"",""U23"",""P19"",""P12"",""U9"",""P2"",""P24"",""P28"",""P21"",""U29"",""U20"",""U15"",""P26"",""U16"",""P3""]","[""U14"",""U25"",""U17"",""P18"",""P10"",""P11"",""P8"",""U5"",""U13"",""P7"",""U1"",""P6"",""U27"",""P4"",""U30"",""U22"",""P23"",""U19"",""U12"",""P9"",""U2"",""U24"",""U28"",""U21"",""P29"",""P20"",""P15"",""U26"",""P16"",""U3""]","4","4","0","0","1","1","","null","[""suitcase_v1.mp4""]","null","segmentation_video","","","","","","","","","suitcase_v1.mp4","suitcase","Predictable","[8.693492,13.17571,17.245855,18.722267,23.121078,25.042189]","6","","P25","25","1","2","1.4764119999999998","false","false","false","","false","0","0","false","false","false","false",""
"","","","","","survey-multi-choice","26","2.0.0","556987","102","1","2026-06-08 20:21:54","segmentation_norming_randomized_order_maxrun_attention_v4","142.114.27.159","Mozilla/5.0 (Macintosh; Intel Mac OS X 10_15_7) AppleWebKit/537.36 (KHTML, like Gecko) Chrome/148.0.0.0 Safari/537.36","Macintosh","Chrome","148.0.0.0","OS X","10_15_7","https://uencdihehs.cognition.run/?PROLIFIC_PID=69de557321797141093c1604&STUDY_ID=6a270c2e609d6ae583c06396&STUDY_ID=6a270c2e609d6ae583c06396&SESSION_ID=6a272320e29843fe2680de94?PROLIFIC_PID=69de557321797141093c1604&SESSION_ID=6a272320e29843fe2680de94?","en-US,en;q=0.9","69de557321797141093c1604","6a270c2e609d6ae583c06396","6a272320e29843fe2680de94?","69de557321797141093c1604","6a270c2e609d6ae583c06396","6a272320e29843fe2680de94?","30","[14,25,17,18,10,11,8,5,13,7,1,6,27,4,30,22,23,19,12,9,2,24,28,21,29,20,15,26,16,3]","[""P14"",""P25"",""P17"",""U18"",""U10"",""U11"",""U8"",""P5"",""P13"",""U7"",""P1"",""U6"",""P27"",""U4"",""P30"",""P22"",""U23"",""P19"",""P12"",""U9"",""P2"",""P24"",""P28"",""P21"",""U29"",""U20"",""U15"",""P26"",""U16"",""P3""]","[""U14"",""U25"",""U17"",""P18"",""P10"",""P11"",""P8"",""U5"",""U13"",""P7"",""U1"",""P6"",""U27"",""P4"",""U30"",""U22"",""P23"",""U19"",""U12"",""P9"",""U2"",""U24"",""U28"",""U21"",""P29"",""P20"",""P15"",""U26"",""P16"",""U3""]","4","4","0","0","1","1","","26362","","{""confidence_rating"":""Very confident""}","confidence_question","[0]","","","","","","","","","suitcase","Predictable","","","","P25","25","1","2","","","","","","","","","","","","","Very confident"
"","","","","","video-keyboard-response","27","2.0.0","595387","102","1","2026-06-08 20:21:54","segmentation_norming_randomized_order_maxrun_attention_v4","142.114.27.159","Mozilla/5.0 (Macintosh; Intel Mac OS X 10_15_7) AppleWebKit/537.36 (KHTML, like Gecko) Chrome/148.0.0.0 Safari/537.36","Macintosh","Chrome","148.0.0.0","OS X","10_15_7","https://uencdihehs.cognition.run/?PROLIFIC_PID=69de557321797141093c1604&STUDY_ID=6a270c2e609d6ae583c06396&STUDY_ID=6a270c2e609d6ae583c06396&SESSION_ID=6a272320e29843fe2680de94?PROLIFIC_PID=69de557321797141093c1604&SESSION_ID=6a272320e29843fe2680de94?","en-US,en;q=0.9","69de557321797141093c1604","6a270c2e609d6ae583c06396","6a272320e29843fe2680de94?","69de557321797141093c1604","6a270c2e609d6ae583c06396","6a272320e29843fe2680de94?","30","[14,25,17,18,10,11,8,5,13,7,1,6,27,4,30,22,23,19,12,9,2,24,28,21,29,20,15,26,16,3]","[""P14"",""P25"",""P17"",""U18"",""U10"",""U11"",""U8"",""P5"",""P13"",""U7"",""P1"",""U6"",""P27"",""U4"",""P30"",""P22"",""U23"",""P19"",""P12"",""U9"",""P2"",""P24"",""P28"",""P21"",""U29"",""U20"",""U15"",""P26"",""U16"",""P3""]","[""U14"",""U25"",""U17"",""P18"",""P10"",""P11"",""P8"",""U5"",""U13"",""P7"",""U1"",""P6"",""U27"",""P4"",""U30"",""U22"",""P23"",""U19"",""U12"",""P9"",""U2"",""U24"",""U28"",""U21"",""P29"",""P20"",""P15"",""U26"",""P16"",""U3""]","4","4","0","0","1","1","","null","[""music_v1.mp4""]","null","segmentation_video","","","","","","","","","music_v1.mp4","music","Predictable","[8.222557,17.241673,20.316871,25.098598,32.744129,35.247808,37.717237]","7","","P17","17","1","3","2.469428999999998","false","false","false","","false","0","0","false","false","false","false",""
"","","","","","survey-multi-choice","30","2.0.0","613066","102","1","2026-06-08 20:21:54","segmentation_norming_randomized_order_maxrun_attention_v4","142.114.27.159","Mozilla/5.0 (Macintosh; Intel Mac OS X 10_15_7) AppleWebKit/537.36 (KHTML, like Gecko) Chrome/148.0.0.0 Safari/537.36","Macintosh","Chrome","148.0.0.0","OS X","10_15_7","https://uencdihehs.cognition.run/?PROLIFIC_PID=69de557321797141093c1604&STUDY_ID=6a270c2e609d6ae583c06396&STUDY_ID=6a270c2e609d6ae583c06396&SESSION_ID=6a272320e29843fe2680de94?PROLIFIC_PID=69de557321797141093c1604&SESSION_ID=6a272320e29843fe2680de94?","en-US,en;q=0.9","69de557321797141093c1604","6a270c2e609d6ae583c06396","6a272320e29843fe2680de94?","69de557321797141093c1604","6a270c2e609d6ae583c06396","6a272320e29843fe2680de94?","30","[14,25,17,18,10,11,8,5,13,7,1,6,27,4,30,22,23,19,12,9,2,24,28,21,29,20,15,26,16,3]","[""P14"",""P25"",""P17"",""U18"",""U10"",""U11"",""U8"",""P5"",""P13"",""U7"",""P1"",""U6"",""P27"",""U4"",""P30"",""P22"",""U23"",""P19"",""P12"",""U9"",""P2"",""P24"",""P28"",""P21"",""U29"",""U20"",""U15"",""P26"",""U16"",""P3""]","[""U14"",""U25"",""U17"",""P18"",""P10"",""P11"",""P8"",""U5"",""U13"",""P7"",""U1"",""P6"",""U27"",""P4"",""U30"",""U22"",""P23"",""U19"",""U12"",""P9"",""U2"",""U24"",""U28"",""U21"",""P29"",""P20"",""P15"",""U26"",""P16"",""U3""]","4","4","0","0","1","1","","17677","","{""confidence_rating"":""Very confident""}","confidence_question","[0]","","","","","","","","","music","Predictable","","","","P17","17","1","3","","","","","","","","","","","","","Very confident"
"","","","","","video-keyboard-response","31","2.0.0","637890","102","1","2026-06-08 20:21:54","segmentation_norming_randomized_order_maxrun_attention_v4","142.114.27.159","Mozilla/5.0 (Macintosh; Intel Mac OS X 10_15_7) AppleWebKit/537.36 (KHTML, like Gecko) Chrome/148.0.0.0 Safari/537.36","Macintosh","Chrome","148.0.0.0","OS X","10_15_7","https://uencdihehs.cognition.run/?PROLIFIC_PID=69de557321797141093c1604&STUDY_ID=6a270c2e609d6ae583c06396&STUDY_ID=6a270c2e609d6ae583c06396&SESSION_ID=6a272320e29843fe2680de94?PROLIFIC_PID=69de557321797141093c1604&SESSION_ID=6a272320e29843fe2680de94?","en-US,en;q=0.9","69de557321797141093c1604","6a270c2e609d6ae583c06396","6a272320e29843fe2680de94?","69de557321797141093c1604","6a270c2e609d6ae583c06396","6a272320e29843fe2680de94?","30","[14,25,17,18,10,11,8,5,13,7,1,6,27,4,30,22,23,19,12,9,2,24,28,21,29,20,15,26,16,3]","[""P14"",""P25"",""P17"",""U18"",""U10"",""U11"",""U8"",""P5"",""P13"",""U7"",""P1"",""U6"",""P27"",""U4"",""P30"",""P22"",""U23"",""P19"",""P12"",""U9"",""P2"",""P24"",""P28"",""P21"",""U29"",""U20"",""U15"",""P26"",""U16"",""P3""]","[""U14"",""U25"",""U17"",""P18"",""P10"",""P11"",""P8"",""U5"",""U13"",""P7"",""U1"",""P6"",""U27"",""P4"",""U30"",""U22"",""P23"",""U19"",""U12"",""P9"",""U2"",""U24"",""U28"",""U21"",""P29"",""P20"",""P15"",""U26"",""P16"",""U3""]","4","4","0","0","1","1","","null","[""painting_v2.mp4""]","null","segmentation_video","","","","","","","","","painting_v2.mp4","painting","Unpredictable","[5.345314,13.241964,18.118418,21.469534,23.00567]","5","","U18","18","1","4","1.536135999999999","false","false","false","","false","0","0","false","false","false","false",""
"","","","","","survey-multi-choice","34","2.0.0","642607","102","1","2026-06-08 20:21:54","segmentation_norming_randomized_order_maxrun_attention_v4","142.114.27.159","Mozilla/5.0 (Macintosh; Intel Mac OS X 10_15_7) AppleWebKit/537.36 (KHTML, like Gecko) Chrome/148.0.0.0 Safari/537.36","Macintosh","Chrome","148.0.0.0","OS X","10_15_7","https://uencdihehs.cognition.run/?PROLIFIC_PID=69de557321797141093c1604&STUDY_ID=6a270c2e609d6ae583c06396&STUDY_ID=6a270c2e609d6ae583c06396&SESSION_ID=6a272320e29843fe2680de94?PROLIFIC_PID=69de557321797141093c1604&SESSION_ID=6a272320e29843fe2680de94?","en-US,en;q=0.9","69de557321797141093c1604","6a270c2e609d6ae583c06396","6a272320e29843fe2680de94?","69de557321797141093c1604","6a270c2e609d6ae583c06396","6a272320e29843fe2680de94?","30","[14,25,17,18,10,11,8,5,13,7,1,6,27,4,30,22,23,19,12,9,2,24,28,21,29,20,15,26,16,3]","[""P14"",""P25"",""P17"",""U18"",""U10"",""U11"",""U8"",""P5"",""P13"",""U7"",""P1"",""U6"",""P27"",""U4"",""P30"",""P22"",""U23"",""P19"",""P12"",""U9"",""P2"",""P24"",""P28"",""P21"",""U29"",""U20"",""U15"",""P26"",""U16"",""P3""]","[""U14"",""U25"",""U17"",""P18"",""P10"",""P11"",""P8"",""U5"",""U13"",""P7"",""U1"",""P6"",""U27"",""P4"",""U30"",""U22"",""P23"",""U19"",""U12"",""P9"",""U2"",""U24"",""U28"",""U21"",""P29"",""P20"",""P15"",""U26"",""P16"",""U3""]","4","4","0","0","1","1","","4715","","{""confidence_rating"":""Very confident""}","confidence_question","[0]","","","","","","","","","painting","Unpredictable","","","","U18","18","1","4","","","","","","","","","","","","","Very confident"
"","","","","","video-keyboard-response","35","2.0.0","673258","102","1","2026-06-08 20:21:54","segmentation_norming_randomized_order_maxrun_attention_v4","142.114.27.159","Mozilla/5.0 (Macintosh; Intel Mac OS X 10_15_7) AppleWebKit/537.36 (KHTML, like Gecko) Chrome/148.0.0.0 Safari/537.36","Macintosh","Chrome","148.0.0.0","OS X","10_15_7","https://uencdihehs.cognition.run/?PROLIFIC_PID=69de557321797141093c1604&STUDY_ID=6a270c2e609d6ae583c06396&STUDY_ID=6a270c2e609d6ae583c06396&SESSION_ID=6a272320e29843fe2680de94?PROLIFIC_PID=69de557321797141093c1604&SESSION_ID=6a272320e29843fe2680de94?","en-US,en;q=0.9","69de557321797141093c1604","6a270c2e609d6ae583c06396","6a272320e29843fe2680de94?","69de557321797141093c1604","6a270c2e609d6ae583c06396","6a272320e29843fe2680de94?","30","[14,25,17,18,10,11,8,5,13,7,1,6,27,4,30,22,23,19,12,9,2,24,28,21,29,20,15,26,16,3]","[""P14"",""P25"",""P17"",""U18"",""U10"",""U11"",""U8"",""P5"",""P13"",""U7"",""P1"",""U6"",""P27"",""U4"",""P30"",""P22"",""U23"",""P19"",""P12"",""U9"",""P2"",""P24"",""P28"",""P21"",""U29"",""U20"",""U15"",""P26"",""U16"",""P3""]","[""U14"",""U25"",""U17"",""P18"",""P10"",""P11"",""P8"",""U5"",""U13"",""P7"",""U1"",""P6"",""U27"",""P4"",""U30"",""U22"",""P23"",""U19"",""U12"",""P9"",""U2"",""U24"",""U28"",""U21"",""P29"",""P20"",""P15"",""U26"",""P16"",""U3""]","4","4","0","0","1","1","","null","[""cleaning_v2.mp4""]","null","segmentation_video","","","","","","","","","cleaning_v2.mp4","cleaning","Unpredictable","[4.260999,7.170509,10.785892,18.41967,20.754603,22.422306,26.140372,27.280504,28.408155]","9","","U10","10","1","5","1.1276510000000002","false","false","false","","false","0","0","false","false","false","false",""
"","","","","","survey-multi-choice","38","2.0.0","677244","102","1","2026-06-08 20:21:54","segmentation_norming_randomized_order_maxrun_attention_v4","142.114.27.159","Mozilla/5.0 (Macintosh; Intel Mac OS X 10_15_7) AppleWebKit/537.36 (KHTML, like Gecko) Chrome/148.0.0.0 Safari/537.36","Macintosh","Chrome","148.0.0.0","OS X","10_15_7","https://uencdihehs.cognition.run/?PROLIFIC_PID=69de557321797141093c1604&STUDY_ID=6a270c2e609d6ae583c06396&STUDY_ID=6a270c2e609d6ae583c06396&SESSION_ID=6a272320e29843fe2680de94?PROLIFIC_PID=69de557321797141093c1604&SESSION_ID=6a272320e29843fe2680de94?","en-US,en;q=0.9","69de557321797141093c1604","6a270c2e609d6ae583c06396","6a272320e29843fe2680de94?","69de557321797141093c1604","6a270c2e609d6ae583c06396","6a272320e29843fe2680de94?","30","[14,25,17,18,10,11,8,5,13,7,1,6,27,4,30,22,23,19,12,9,2,24,28,21,29,20,15,26,16,3]","[""P14"",""P25"",""P17"",""U18"",""U10"",""U11"",""U8"",""P5"",""P13"",""U7"",""P1"",""U6"",""P27"",""U4"",""P30"",""P22"",""U23"",""P19"",""P12"",""U9"",""P2"",""P24"",""P28"",""P21"",""U29"",""U20"",""U15"",""P26"",""U16"",""P3""]","[""U14"",""U25"",""U17"",""P18"",""P10"",""P11"",""P8"",""U5"",""U13"",""P7"",""U1"",""P6"",""U27"",""P4"",""U30"",""U22"",""P23"",""U19"",""U12"",""P9"",""U2"",""U24"",""U28"",""U21"",""P29"",""P20"",""P15"",""U26"",""P16"",""U3""]","4","4","0","0","1","1","","3985","","{""confidence_rating"":""Very confident""}","confidence_question","[0]","","","","","","","","","cleaning","Unpredictable","","","","U10","10","1","5","","","","","","","","","","","","","Very confident"
"","","","","","video-keyboard-response","39","2.0.0","708435","102","1","2026-06-08 20:21:54","segmentation_norming_randomized_order_maxrun_attention_v4","142.114.27.159","Mozilla/5.0 (Macintosh; Intel Mac OS X 10_15_7) AppleWebKit/537.36 (KHTML, like Gecko) Chrome/148.0.0.0 Safari/537.36","Macintosh","Chrome","148.0.0.0","OS X","10_15_7","https://uencdihehs.cognition.run/?PROLIFIC_PID=69de557321797141093c1604&STUDY_ID=6a270c2e609d6ae583c06396&STUDY_ID=6a270c2e609d6ae583c06396&SESSION_ID=6a272320e29843fe2680de94?PROLIFIC_PID=69de557321797141093c1604&SESSION_ID=6a272320e29843fe2680de94?","en-US,en;q=0.9","69de557321797141093c1604","6a270c2e609d6ae583c06396","6a272320e29843fe2680de94?","69de557321797141093c1604","6a270c2e609d6ae583c06396","6a272320e29843fe2680de94?","30","[14,25,17,18,10,11,8,5,13,7,1,6,27,4,30,22,23,19,12,9,2,24,28,21,29,20,15,26,16,3]","[""P14"",""P25"",""P17"",""U18"",""U10"",""U11"",""U8"",""P5"",""P13"",""U7"",""P1"",""U6"",""P27"",""U4"",""P30"",""P22"",""U23"",""P19"",""P12"",""U9"",""P2"",""P24"",""P28"",""P21"",""U29"",""U20"",""U15"",""P26"",""U16"",""P3""]","[""U14"",""U25"",""U17"",""P18"",""P10"",""P11"",""P8"",""U5"",""U13"",""P7"",""U1"",""P6"",""U27"",""P4"",""U30"",""U22"",""P23"",""U19"",""U12"",""P9"",""U2"",""U24"",""U28"",""U21"",""P29"",""P20"",""P15"",""U26"",""P16"",""U3""]","4","4","0","0","1","1","","null","[""fireplace_v2.mp4""]","null","segmentation_video","","","","","","","","","fireplace_v2.mp4","fireplace","Unpredictable","[3.078875,4.366265,6.575681,10.514132,11.72667,12.727213,15.617418,17.948738,22.709933]","9","","U11","11","1","6","1.0005430000000004","false","false","false","","false","0","0","false","false","false","false",""
"","","","","","survey-multi-choice","42","2.0.0","713972","102","1","2026-06-08 20:21:54","segmentation_norming_randomized_order_maxrun_attention_v4","142.114.27.159","Mozilla/5.0 (Macintosh; Intel Mac OS X 10_15_7) AppleWebKit/537.36 (KHTML, like Gecko) Chrome/148.0.0.0 Safari/537.36","Macintosh","Chrome","148.0.0.0","OS X","10_15_7","https://uencdihehs.cognition.run/?PROLIFIC_PID=69de557321797141093c1604&STUDY_ID=6a270c2e609d6ae583c06396&STUDY_ID=6a270c2e609d6ae583c06396&SESSION_ID=6a272320e29843fe2680de94?PROLIFIC_PID=69de557321797141093c1604&SESSION_ID=6a272320e29843fe2680de94?","en-US,en;q=0.9","69de557321797141093c1604","6a270c2e609d6ae583c06396","6a272320e29843fe2680de94?","69de557321797141093c1604","6a270c2e609d6ae583c06396","6a272320e29843fe2680de94?","30","[14,25,17,18,10,11,8,5,13,7,1,6,27,4,30,22,23,19,12,9,2,24,28,21,29,20,15,26,16,3]","[""P14"",""P25"",""P17"",""U18"",""U10"",""U11"",""U8"",""P5"",""P13"",""U7"",""P1"",""U6"",""P27"",""U4"",""P30"",""P22"",""U23"",""P19"",""P12"",""U9"",""P2"",""P24"",""P28"",""P21"",""U29"",""U20"",""U15"",""P26"",""U16"",""P3""]","[""U14"",""U25"",""U17"",""P18"",""P10"",""P11"",""P8"",""U5"",""U13"",""P7"",""U1"",""P6"",""U27"",""P4"",""U30"",""U22"",""P23"",""U19"",""U12"",""P9"",""U2"",""U24"",""U28"",""U21"",""P29"",""P20"",""P15"",""U26"",""P16"",""U3""]","4","4","0","0","1","1","","5534","","{""confidence_rating"":""Very confident""}","confidence_question","[0]","","","","","","","","","fireplace","Unpredictable","","","","U11","11","1","6","","","","","","","","","","","","","Very confident"
"","","","","","video-keyboard-response","43","2.0.0","753616","102","1","2026-06-08 20:21:54","segmentation_norming_randomized_order_maxrun_attention_v4","142.114.27.159","Mozilla/5.0 (Macintosh; Intel Mac OS X 10_15_7) AppleWebKit/537.36 (KHTML, like Gecko) Chrome/148.0.0.0 Safari/537.36","Macintosh","Chrome","148.0.0.0","OS X","10_15_7","https://uencdihehs.cognition.run/?PROLIFIC_PID=69de557321797141093c1604&STUDY_ID=6a270c2e609d6ae583c06396&STUDY_ID=6a270c2e609d6ae583c06396&SESSION_ID=6a272320e29843fe2680de94?PROLIFIC_PID=69de557321797141093c1604&SESSION_ID=6a272320e29843fe2680de94?","en-US,en;q=0.9","69de557321797141093c1604","6a270c2e609d6ae583c06396","6a272320e29843fe2680de94?","69de557321797141093c1604","6a270c2e609d6ae583c06396","6a272320e29843fe2680de94?","30","[14,25,17,18,10,11,8,5,13,7,1,6,27,4,30,22,23,19,12,9,2,24,28,21,29,20,15,26,16,3]","[""P14"",""P25"",""P17"",""U18"",""U10"",""U11"",""U8"",""P5"",""P13"",""U7"",""P1"",""U6"",""P27"",""U4"",""P30"",""P22"",""U23"",""P19"",""P12"",""U9"",""P2"",""P24"",""P28"",""P21"",""U29"",""U20"",""U15"",""P26"",""U16"",""P3""]","[""U14"",""U25"",""U17"",""P18"",""P10"",""P11"",""P8"",""U5"",""U13"",""P7"",""U1"",""P6"",""U27"",""P4"",""U30"",""U22"",""P23"",""U19"",""U12"",""P9"",""U2"",""U24"",""U28"",""U21"",""P29"",""P20"",""P15"",""U26"",""P16"",""U3""]","4","4","0","0","1","1","","null","[""car_v2.mp4""]","null","segmentation_video","","","","","","","","","car_v2.mp4","car","Unpredictable","[4.806568,9.754499,11.094383,17.223881,20.339426,27.992863,35.156548]","7","","U8","8","1","7","1.3398840000000014","false","false","false","","false","0","0","false","false","false","false",""
"","","","","","survey-multi-choice","46","2.0.0","757586","102","1","2026-06-08 20:21:54","segmentation_norming_randomized_order_maxrun_attention_v4","142.114.27.159","Mozilla/5.0 (Macintosh; Intel Mac OS X 10_15_7) AppleWebKit/537.36 (KHTML, like Gecko) Chrome/148.0.0.0 Safari/537.36","Macintosh","Chrome","148.0.0.0","OS X","10_15_7","https://uencdihehs.cognition.run/?PROLIFIC_PID=69de557321797141093c1604&STUDY_ID=6a270c2e609d6ae583c06396&STUDY_ID=6a270c2e609d6ae583c06396&SESSION_ID=6a272320e29843fe2680de94?PROLIFIC_PID=69de557321797141093c1604&SESSION_ID=6a272320e29843fe2680de94?","en-US,en;q=0.9","69de557321797141093c1604","6a270c2e609d6ae583c06396","6a272320e29843fe2680de94?","69de557321797141093c1604","6a270c2e609d6ae583c06396","6a272320e29843fe2680de94?","30","[14,25,17,18,10,11,8,5,13,7,1,6,27,4,30,22,23,19,12,9,2,24,28,21,29,20,15,26,16,3]","[""P14"",""P25"",""P17"",""U18"",""U10"",""U11"",""U8"",""P5"",""P13"",""U7"",""P1"",""U6"",""P27"",""U4"",""P30"",""P22"",""U23"",""P19"",""P12"",""U9"",""P2"",""P24"",""P28"",""P21"",""U29"",""U20"",""U15"",""P26"",""U16"",""P3""]","[""U14"",""U25"",""U17"",""P18"",""P10"",""P11"",""P8"",""U5"",""U13"",""P7"",""U1"",""P6"",""U27"",""P4"",""U30"",""U22"",""P23"",""U19"",""U12"",""P9"",""U2"",""U24"",""U28"",""U21"",""P29"",""P20"",""P15"",""U26"",""P16"",""U3""]","4","4","0","0","1","1","","3968","","{""confidence_rating"":""Very confident""}","confidence_question","[0]","","","","","","","","","car","Unpredictable","","","","U8","8","1","7","","","","","","","","","","","","","Very confident"
"","","","","","video-keyboard-response","47","2.0.0","784568","102","1","2026-06-08 20:21:54","segmentation_norming_randomized_order_maxrun_attention_v4","142.114.27.159","Mozilla/5.0 (Macintosh; Intel Mac OS X 10_15_7) AppleWebKit/537.36 (KHTML, like Gecko) Chrome/148.0.0.0 Safari/537.36","Macintosh","Chrome","148.0.0.0","OS X","10_15_7","https://uencdihehs.cognition.run/?PROLIFIC_PID=69de557321797141093c1604&STUDY_ID=6a270c2e609d6ae583c06396&STUDY_ID=6a270c2e609d6ae583c06396&SESSION_ID=6a272320e29843fe2680de94?PROLIFIC_PID=69de557321797141093c1604&SESSION_ID=6a272320e29843fe2680de94?","en-US,en;q=0.9","69de557321797141093c1604","6a270c2e609d6ae583c06396","6a272320e29843fe2680de94?","69de557321797141093c1604","6a270c2e609d6ae583c06396","6a272320e29843fe2680de94?","30","[14,25,17,18,10,11,8,5,13,7,1,6,27,4,30,22,23,19,12,9,2,24,28,21,29,20,15,26,16,3]","[""P14"",""P25"",""P17"",""U18"",""U10"",""U11"",""U8"",""P5"",""P13"",""U7"",""P1"",""U6"",""P27"",""U4"",""P30"",""P22"",""U23"",""P19"",""P12"",""U9"",""P2"",""P24"",""P28"",""P21"",""U29"",""U20"",""U15"",""P26"",""U16"",""P3""]","[""U14"",""U25"",""U17"",""P18"",""P10"",""P11"",""P8"",""U5"",""U13"",""P7"",""U1"",""P6"",""U27"",""P4"",""U30"",""U22"",""P23"",""U19"",""U12"",""P9"",""U2"",""U24"",""U28"",""U21"",""P29"",""P20"",""P15"",""U26"",""P16"",""U3""]","4","4","0","0","1","1","","null","[""beach_v1.mp4""]","null","segmentation_video","","","","","","","","","beach_v1.mp4","beach","Predictable","[4.993024,7.19077,12.253999,16.474303,18.166822,20.239518,22.427133,24.870808]","8","","P5","5","1","8","1.6925190000000008","false","false","false","","false","0","0","false","false","false","false",""
"","","","","","survey-multi-choice","50","2.0.0","801499","102","1","2026-06-08 20:21:54","segmentation_norming_randomized_order_maxrun_attention_v4","142.114.27.159","Mozilla/5.0 (Macintosh; Intel Mac OS X 10_15_7) AppleWebKit/537.36 (KHTML, like Gecko) Chrome/148.0.0.0 Safari/537.36","Macintosh","Chrome","148.0.0.0","OS X","10_15_7","https://uencdihehs.cognition.run/?PROLIFIC_PID=69de557321797141093c1604&STUDY_ID=6a270c2e609d6ae583c06396&STUDY_ID=6a270c2e609d6ae583c06396&SESSION_ID=6a272320e29843fe2680de94?PROLIFIC_PID=69de557321797141093c1604&SESSION_ID=6a272320e29843fe2680de94?","en-US,en;q=0.9","69de557321797141093c1604","6a270c2e609d6ae583c06396","6a272320e29843fe2680de94?","69de557321797141093c1604","6a270c2e609d6ae583c06396","6a272320e29843fe2680de94?","30","[14,25,17,18,10,11,8,5,13,7,1,6,27,4,30,22,23,19,12,9,2,24,28,21,29,20,15,26,16,3]","[""P14"",""P25"",""P17"",""U18"",""U10"",""U11"",""U8"",""P5"",""P13"",""U7"",""P1"",""U6"",""P27"",""U4"",""P30"",""P22"",""U23"",""P19"",""P12"",""U9"",""P2"",""P24"",""P28"",""P21"",""U29"",""U20"",""U15"",""P26"",""U16"",""P3""]","[""U14"",""U25"",""U17"",""P18"",""P10"",""P11"",""P8"",""U5"",""U13"",""P7"",""U1"",""P6"",""U27"",""P4"",""U30"",""U22"",""P23"",""U19"",""U12"",""P9"",""U2"",""U24"",""U28"",""U21"",""P29"",""P20"",""P15"",""U26"",""P16"",""U3""]","4","4","0","0","1","1","","16929","","{""confidence_rating"":""Very confident""}","confidence_question","[0]","","","","","","","","","beach","Predictable","","","","P5","5","1","8","","","","","","","","","","","","","Very confident"
"","","","","","video-keyboard-response","51","2.0.0","831029","102","1","2026-06-08 20:21:54","segmentation_norming_randomized_order_maxrun_attention_v4","142.114.27.159","Mozilla/5.0 (Macintosh; Intel Mac OS X 10_15_7) AppleWebKit/537.36 (KHTML, like Gecko) Chrome/148.0.0.0 Safari/537.36","Macintosh","Chrome","148.0.0.0","OS X","10_15_7","https://uencdihehs.cognition.run/?PROLIFIC_PID=69de557321797141093c1604&STUDY_ID=6a270c2e609d6ae583c06396&STUDY_ID=6a270c2e609d6ae583c06396&SESSION_ID=6a272320e29843fe2680de94?PROLIFIC_PID=69de557321797141093c1604&SESSION_ID=6a272320e29843fe2680de94?","en-US,en;q=0.9","69de557321797141093c1604","6a270c2e609d6ae583c06396","6a272320e29843fe2680de94?","69de557321797141093c1604","6a270c2e609d6ae583c06396","6a272320e29843fe2680de94?","30","[14,25,17,18,10,11,8,5,13,7,1,6,27,4,30,22,23,19,12,9,2,24,28,21,29,20,15,26,16,3]","[""P14"",""P25"",""P17"",""U18"",""U10"",""U11"",""U8"",""P5"",""P13"",""U7"",""P1"",""U6"",""P27"",""U4"",""P30"",""P22"",""U23"",""P19"",""P12"",""U9"",""P2"",""P24"",""P28"",""P21"",""U29"",""U20"",""U15"",""P26"",""U16"",""P3""]","[""U14"",""U25"",""U17"",""P18"",""P10"",""P11"",""P8"",""U5"",""U13"",""P7"",""U1"",""P6"",""U27"",""P4"",""U30"",""U22"",""P23"",""U19"",""U12"",""P9"",""U2"",""U24"",""U28"",""U21"",""P29"",""P20"",""P15"",""U26"",""P16"",""U3""]","4","4","0","0","1","1","","null","[""gym_v1.mp4""]","null","segmentation_video","","","","","","","","","gym_v1.mp4","gym","Predictable","[4.398836,6.642356,8.676072,9.954649,11.737905,17.096488,18.724547,23.66328,26.140162,27.265098]","10","","P13","13","1","9","1.1249359999999982","false","false","false","","false","0","0","false","false","false","false",""
"","","","","","survey-multi-choice","54","2.0.0","874545","102","1","2026-06-08 20:21:54","segmentation_norming_randomized_order_maxrun_attention_v4","142.114.27.159","Mozilla/5.0 (Macintosh; Intel Mac OS X 10_15_7) AppleWebKit/537.36 (KHTML, like Gecko) Chrome/148.0.0.0 Safari/537.36","Macintosh","Chrome","148.0.0.0","OS X","10_15_7","https://uencdihehs.cognition.run/?PROLIFIC_PID=69de557321797141093c1604&STUDY_ID=6a270c2e609d6ae583c06396&STUDY_ID=6a270c2e609d6ae583c06396&SESSION_ID=6a272320e29843fe2680de94?PROLIFIC_PID=69de557321797141093c1604&SESSION_ID=6a272320e29843fe2680de94?","en-US,en;q=0.9","69de557321797141093c1604","6a270c2e609d6ae583c06396","6a272320e29843fe2680de94?","69de557321797141093c1604","6a270c2e609d6ae583c06396","6a272320e29843fe2680de94?","30","[14,25,17,18,10,11,8,5,13,7,1,6,27,4,30,22,23,19,12,9,2,24,28,21,29,20,15,26,16,3]","[""P14"",""P25"",""P17"",""U18"",""U10"",""U11"",""U8"",""P5"",""P13"",""U7"",""P1"",""U6"",""P27"",""U4"",""P30"",""P22"",""U23"",""P19"",""P12"",""U9"",""P2"",""P24"",""P28"",""P21"",""U29"",""U20"",""U15"",""P26"",""U16"",""P3""]","[""U14"",""U25"",""U17"",""P18"",""P10"",""P11"",""P8"",""U5"",""U13"",""P7"",""U1"",""P6"",""U27"",""P4"",""U30"",""U22"",""P23"",""U19"",""U12"",""P9"",""U2"",""U24"",""U28"",""U21"",""P29"",""P20"",""P15"",""U26"",""P16"",""U3""]","4","4","0","0","1","1","","43515","","{""confidence_rating"":""Very confident""}","confidence_question","[0]","","","","","","","","","gym","Predictable","","","","P13","13","1","9","","","","","","","","","","","","","Very confident"
"","","","","","video-keyboard-response","55","2.0.0","904131","102","1","2026-06-08 20:21:54","segmentation_norming_randomized_order_maxrun_attention_v4","142.114.27.159","Mozilla/5.0 (Macintosh; Intel Mac OS X 10_15_7) AppleWebKit/537.36 (KHTML, like Gecko) Chrome/148.0.0.0 Safari/537.36","Macintosh","Chrome","148.0.0.0","OS X","10_15_7","https://uencdihehs.cognition.run/?PROLIFIC_PID=69de557321797141093c1604&STUDY_ID=6a270c2e609d6ae583c06396&STUDY_ID=6a270c2e609d6ae583c06396&SESSION_ID=6a272320e29843fe2680de94?PROLIFIC_PID=69de557321797141093c1604&SESSION_ID=6a272320e29843fe2680de94?","en-US,en;q=0.9","69de557321797141093c1604","6a270c2e609d6ae583c06396","6a272320e29843fe2680de94?","69de557321797141093c1604","6a270c2e609d6ae583c06396","6a272320e29843fe2680de94?","30","[14,25,17,18,10,11,8,5,13,7,1,6,27,4,30,22,23,19,12,9,2,24,28,21,29,20,15,26,16,3]","[""P14"",""P25"",""P17"",""U18"",""U10"",""U11"",""U8"",""P5"",""P13"",""U7"",""P1"",""U6"",""P27"",""U4"",""P30"",""P22"",""U23"",""P19"",""P12"",""U9"",""P2"",""P24"",""P28"",""P21"",""U29"",""U20"",""U15"",""P26"",""U16"",""P3""]","[""U14"",""U25"",""U17"",""P18"",""P10"",""P11"",""P8"",""U5"",""U13"",""P7"",""U1"",""P6"",""U27"",""P4"",""U30"",""U22"",""P23"",""U19"",""U12"",""P9"",""U2"",""U24"",""U28"",""U21"",""P29"",""P20"",""P15"",""U26"",""P16"",""U3""]","4","4","0","0","1","1","","null","[""bike_v2.mp4""]","null","segmentation_video","","","","","","","","","bike_v2.mp4","bike","Unpredictable","[4.391411,6.129307,10.629601,15.705865,20.822348,24.132318,27.794986]","7","","U7","7","1","10","1.737896","false","false","false","","false","0","0","false","false","false","false",""
"","","","","","survey-multi-choice","58","2.0.0","907706","102","1","2026-06-08 20:21:54","segmentation_norming_randomized_order_maxrun_attention_v4","142.114.27.159","Mozilla/5.0 (Macintosh; Intel Mac OS X 10_15_7) AppleWebKit/537.36 (KHTML, like Gecko) Chrome/148.0.0.0 Safari/537.36","Macintosh","Chrome","148.0.0.0","OS X","10_15_7","https://uencdihehs.cognition.run/?PROLIFIC_PID=69de557321797141093c1604&STUDY_ID=6a270c2e609d6ae583c06396&STUDY_ID=6a270c2e609d6ae583c06396&SESSION_ID=6a272320e29843fe2680de94?PROLIFIC_PID=69de557321797141093c1604&SESSION_ID=6a272320e29843fe2680de94?","en-US,en;q=0.9","69de557321797141093c1604","6a270c2e609d6ae583c06396","6a272320e29843fe2680de94?","69de557321797141093c1604","6a270c2e609d6ae583c06396","6a272320e29843fe2680de94?","30","[14,25,17,18,10,11,8,5,13,7,1,6,27,4,30,22,23,19,12,9,2,24,28,21,29,20,15,26,16,3]","[""P14"",""P25"",""P17"",""U18"",""U10"",""U11"",""U8"",""P5"",""P13"",""U7"",""P1"",""U6"",""P27"",""U4"",""P30"",""P22"",""U23"",""P19"",""P12"",""U9"",""P2"",""P24"",""P28"",""P21"",""U29"",""U20"",""U15"",""P26"",""U16"",""P3""]","[""U14"",""U25"",""U17"",""P18"",""P10"",""P11"",""P8"",""U5"",""U13"",""P7"",""U1"",""P6"",""U27"",""P4"",""U30"",""U22"",""P23"",""U19"",""U12"",""P9"",""U2"",""U24"",""U28"",""U21"",""P29"",""P20"",""P15"",""U26"",""P16"",""U3""]","4","4","0","0","1","1","","3573","","{""confidence_rating"":""Very confident""}","confidence_question","[0]","","","","","","","","","bike","Unpredictable","","","","U7","7","1","10","","","","","","","","","","","","","Very confident"
"","","","","","video-keyboard-response","59","2.0.0","936641","102","1","2026-06-08 20:21:54","segmentation_norming_randomized_order_maxrun_attention_v4","142.114.27.159","Mozilla/5.0 (Macintosh; Intel Mac OS X 10_15_7) AppleWebKit/537.36 (KHTML, like Gecko) Chrome/148.0.0.0 Safari/537.36","Macintosh","Chrome","148.0.0.0","OS X","10_15_7","https://uencdihehs.cognition.run/?PROLIFIC_PID=69de557321797141093c1604&STUDY_ID=6a270c2e609d6ae583c06396&STUDY_ID=6a270c2e609d6ae583c06396&SESSION_ID=6a272320e29843fe2680de94?PROLIFIC_PID=69de557321797141093c1604&SESSION_ID=6a272320e29843fe2680de94?","en-US,en;q=0.9","69de557321797141093c1604","6a270c2e609d6ae583c06396","6a272320e29843fe2680de94?","69de557321797141093c1604","6a270c2e609d6ae583c06396","6a272320e29843fe2680de94?","30","[14,25,17,18,10,11,8,5,13,7,1,6,27,4,30,22,23,19,12,9,2,24,28,21,29,20,15,26,16,3]","[""P14"",""P25"",""P17"",""U18"",""U10"",""U11"",""U8"",""P5"",""P13"",""U7"",""P1"",""U6"",""P27"",""U4"",""P30"",""P22"",""U23"",""P19"",""P12"",""U9"",""P2"",""P24"",""P28"",""P21"",""U29"",""U20"",""U15"",""P26"",""U16"",""P3""]","[""U14"",""U25"",""U17"",""P18"",""P10"",""P11"",""P8"",""U5"",""U13"",""P7"",""U1"",""P6"",""U27"",""P4"",""U30"",""U22"",""P23"",""U19"",""U12"",""P9"",""U2"",""U24"",""U28"",""U21"",""P29"",""P20"",""P15"",""U26"",""P16"",""U3""]","4","4","0","0","1","1","","null","[""baking_v1.mp4""]","null","segmentation_video","","","","","","","","","baking_v1.mp4","baking","Predictable","[2.267766,10.272869,13.54172,19.721637,21.808972,23.303026,26.46561,28.40276]","8","","P1","1","1","11","1.4940539999999984","false","false","false","","false","0","0","false","false","false","false",""
"","","","","","survey-multi-choice","62","2.0.0","939868","102","1","2026-06-08 20:21:54","segmentation_norming_randomized_order_maxrun_attention_v4","142.114.27.159","Mozilla/5.0 (Macintosh; Intel Mac OS X 10_15_7) AppleWebKit/537.36 (KHTML, like Gecko) Chrome/148.0.0.0 Safari/537.36","Macintosh","Chrome","148.0.0.0","OS X","10_15_7","https://uencdihehs.cognition.run/?PROLIFIC_PID=69de557321797141093c1604&STUDY_ID=6a270c2e609d6ae583c06396&STUDY_ID=6a270c2e609d6ae583c06396&SESSION_ID=6a272320e29843fe2680de94?PROLIFIC_PID=69de557321797141093c1604&SESSION_ID=6a272320e29843fe2680de94?","en-US,en;q=0.9","69de557321797141093c1604","6a270c2e609d6ae583c06396","6a272320e29843fe2680de94?","69de557321797141093c1604","6a270c2e609d6ae583c06396","6a272320e29843fe2680de94?","30","[14,25,17,18,10,11,8,5,13,7,1,6,27,4,30,22,23,19,12,9,2,24,28,21,29,20,15,26,16,3]","[""P14"",""P25"",""P17"",""U18"",""U10"",""U11"",""U8"",""P5"",""P13"",""U7"",""P1"",""U6"",""P27"",""U4"",""P30"",""P22"",""U23"",""P19"",""P12"",""U9"",""P2"",""P24"",""P28"",""P21"",""U29"",""U20"",""U15"",""P26"",""U16"",""P3""]","[""U14"",""U25"",""U17"",""P18"",""P10"",""P11"",""P8"",""U5"",""U13"",""P7"",""U1"",""P6"",""U27"",""P4"",""U30"",""U22"",""P23"",""U19"",""U12"",""P9"",""U2"",""U24"",""U28"",""U21"",""P29"",""P20"",""P15"",""U26"",""P16"",""U3""]","4","4","0","0","1","1","","3224","","{""confidence_rating"":""Very confident""}","confidence_question","[0]","","","","","","","","","baking","Predictable","","","","P1","1","1","11","","","","","","","","","","","","","Very confident"
"","","","","","video-keyboard-response","63","2.0.0","974740","102","1","2026-06-08 20:21:54","segmentation_norming_randomized_order_maxrun_attention_v4","142.114.27.159","Mozilla/5.0 (Macintosh; Intel Mac OS X 10_15_7) AppleWebKit/537.36 (KHTML, like Gecko) Chrome/148.0.0.0 Safari/537.36","Macintosh","Chrome","148.0.0.0","OS X","10_15_7","https://uencdihehs.cognition.run/?PROLIFIC_PID=69de557321797141093c1604&STUDY_ID=6a270c2e609d6ae583c06396&STUDY_ID=6a270c2e609d6ae583c06396&SESSION_ID=6a272320e29843fe2680de94?PROLIFIC_PID=69de557321797141093c1604&SESSION_ID=6a272320e29843fe2680de94?","en-US,en;q=0.9","69de557321797141093c1604","6a270c2e609d6ae583c06396","6a272320e29843fe2680de94?","69de557321797141093c1604","6a270c2e609d6ae583c06396","6a272320e29843fe2680de94?","30","[14,25,17,18,10,11,8,5,13,7,1,6,27,4,30,22,23,19,12,9,2,24,28,21,29,20,15,26,16,3]","[""P14"",""P25"",""P17"",""U18"",""U10"",""U11"",""U8"",""P5"",""P13"",""U7"",""P1"",""U6"",""P27"",""U4"",""P30"",""P22"",""U23"",""P19"",""P12"",""U9"",""P2"",""P24"",""P28"",""P21"",""U29"",""U20"",""U15"",""P26"",""U16"",""P3""]","[""U14"",""U25"",""U17"",""P18"",""P10"",""P11"",""P8"",""U5"",""U13"",""P7"",""U1"",""P6"",""U27"",""P4"",""U30"",""U22"",""P23"",""U19"",""U12"",""P9"",""U2"",""U24"",""U28"",""U21"",""P29"",""P20"",""P15"",""U26"",""P16"",""U3""]","4","4","0","0","1","1","","null","[""bedding_v2.mp4""]","null","segmentation_video","","","","","","","","","bedding_v2.mp4","bedding","Unpredictable","[4.54264,10.041496,16.230573,20.46163,26.427052,27.77894,31.189901,34.627538]","8","","U6","6","1","12","1.3518879999999989","false","false","false","","false","0","0","false","false","false","false",""
"","","","","","survey-multi-choice","66","2.0.0","978133","102","1","2026-06-08 20:21:54","segmentation_norming_randomized_order_maxrun_attention_v4","142.114.27.159","Mozilla/5.0 (Macintosh; Intel Mac OS X 10_15_7) AppleWebKit/537.36 (KHTML, like Gecko) Chrome/148.0.0.0 Safari/537.36","Macintosh","Chrome","148.0.0.0","OS X","10_15_7","https://uencdihehs.cognition.run/?PROLIFIC_PID=69de557321797141093c1604&STUDY_ID=6a270c2e609d6ae583c06396&STUDY_ID=6a270c2e609d6ae583c06396&SESSION_ID=6a272320e29843fe2680de94?PROLIFIC_PID=69de557321797141093c1604&SESSION_ID=6a272320e29843fe2680de94?","en-US,en;q=0.9","69de557321797141093c1604","6a270c2e609d6ae583c06396","6a272320e29843fe2680de94?","69de557321797141093c1604","6a270c2e609d6ae583c06396","6a272320e29843fe2680de94?","30","[14,25,17,18,10,11,8,5,13,7,1,6,27,4,30,22,23,19,12,9,2,24,28,21,29,20,15,26,16,3]","[""P14"",""P25"",""P17"",""U18"",""U10"",""U11"",""U8"",""P5"",""P13"",""U7"",""P1"",""U6"",""P27"",""U4"",""P30"",""P22"",""U23"",""P19"",""P12"",""U9"",""P2"",""P24"",""P28"",""P21"",""U29"",""U20"",""U15"",""P26"",""U16"",""P3""]","[""U14"",""U25"",""U17"",""P18"",""P10"",""P11"",""P8"",""U5"",""U13"",""P7"",""U1"",""P6"",""U27"",""P4"",""U30"",""U22"",""P23"",""U19"",""U12"",""P9"",""U2"",""U24"",""U28"",""U21"",""P29"",""P20"",""P15"",""U26"",""P16"",""U3""]","4","4","0","0","1","1","","3391","","{""confidence_rating"":""Very confident""}","confidence_question","[0]","","","","","","","","","bedding","Unpredictable","","","","U6","6","1","12","","","","","","","","","","","","","Very confident"
"","","","","","video-keyboard-response","67","2.0.0","1009233","102","1","2026-06-08 20:21:54","segmentation_norming_randomized_order_maxrun_attention_v4","142.114.27.159","Mozilla/5.0 (Macintosh; Intel Mac OS X 10_15_7) AppleWebKit/537.36 (KHTML, like Gecko) Chrome/148.0.0.0 Safari/537.36","Macintosh","Chrome","148.0.0.0","OS X","10_15_7","https://uencdihehs.cognition.run/?PROLIFIC_PID=69de557321797141093c1604&STUDY_ID=6a270c2e609d6ae583c06396&STUDY_ID=6a270c2e609d6ae583c06396&SESSION_ID=6a272320e29843fe2680de94?PROLIFIC_PID=69de557321797141093c1604&SESSION_ID=6a272320e29843fe2680de94?","en-US,en;q=0.9","69de557321797141093c1604","6a270c2e609d6ae583c06396","6a272320e29843fe2680de94?","69de557321797141093c1604","6a270c2e609d6ae583c06396","6a272320e29843fe2680de94?","30","[14,25,17,18,10,11,8,5,13,7,1,6,27,4,30,22,23,19,12,9,2,24,28,21,29,20,15,26,16,3]","[""P14"",""P25"",""P17"",""U18"",""U10"",""U11"",""U8"",""P5"",""P13"",""U7"",""P1"",""U6"",""P27"",""U4"",""P30"",""P22"",""U23"",""P19"",""P12"",""U9"",""P2"",""P24"",""P28"",""P21"",""U29"",""U20"",""U15"",""P26"",""U16"",""P3""]","[""U14"",""U25"",""U17"",""P18"",""P10"",""P11"",""P8"",""U5"",""U13"",""P7"",""U1"",""P6"",""U27"",""P4"",""U30"",""U22"",""P23"",""U19"",""U12"",""P9"",""U2"",""U24"",""U28"",""U21"",""P29"",""P20"",""P15"",""U26"",""P16"",""U3""]","4","4","0","0","1","1","","null","[""tea_v1.mp4""]","null","segmentation_video","","","","","","","","","tea_v1.mp4","tea","Predictable","[3.727892,6.304679,10.856458,15.692685,23.661771,25.881116,29.572082]","7","","P27","27","1","13","2.219344999999997","false","false","false","","false","0","0","false","false","false","false",""
"","","","","","survey-multi-choice","70","2.0.0","1012833","102","1","2026-06-08 20:21:54","segmentation_norming_randomized_order_maxrun_attention_v4","142.114.27.159","Mozilla/5.0 (Macintosh; Intel Mac OS X 10_15_7) AppleWebKit/537.36 (KHTML, like Gecko) Chrome/148.0.0.0 Safari/537.36","Macintosh","Chrome","148.0.0.0","OS X","10_15_7","https://uencdihehs.cognition.run/?PROLIFIC_PID=69de557321797141093c1604&STUDY_ID=6a270c2e609d6ae583c06396&STUDY_ID=6a270c2e609d6ae583c06396&SESSION_ID=6a272320e29843fe2680de94?PROLIFIC_PID=69de557321797141093c1604&SESSION_ID=6a272320e29843fe2680de94?","en-US,en;q=0.9","69de557321797141093c1604","6a270c2e609d6ae583c06396","6a272320e29843fe2680de94?","69de557321797141093c1604","6a270c2e609d6ae583c06396","6a272320e29843fe2680de94?","30","[14,25,17,18,10,11,8,5,13,7,1,6,27,4,30,22,23,19,12,9,2,24,28,21,29,20,15,26,16,3]","[""P14"",""P25"",""P17"",""U18"",""U10"",""U11"",""U8"",""P5"",""P13"",""U7"",""P1"",""U6"",""P27"",""U4"",""P30"",""P22"",""U23"",""P19"",""P12"",""U9"",""P2"",""P24"",""P28"",""P21"",""U29"",""U20"",""U15"",""P26"",""U16"",""P3""]","[""U14"",""U25"",""U17"",""P18"",""P10"",""P11"",""P8"",""U5"",""U13"",""P7"",""U1"",""P6"",""U27"",""P4"",""U30"",""U22"",""P23"",""U19"",""U12"",""P9"",""U2"",""U24"",""U28"",""U21"",""P29"",""P20"",""P15"",""U26"",""P16"",""U3""]","4","4","0","0","1","1","","3597","","{""confidence_rating"":""Very confident""}","confidence_question","[0]","","","","","","","","","tea","Predictable","","","","P27","27","1","13","","","","","","","","","","","","","Very confident"
"","","","","","video-keyboard-response","71","2.0.0","1048143","102","1","2026-06-08 20:21:54","segmentation_norming_randomized_order_maxrun_attention_v4","142.114.27.159","Mozilla/5.0 (Macintosh; Intel Mac OS X 10_15_7) AppleWebKit/537.36 (KHTML, like Gecko) Chrome/148.0.0.0 Safari/537.36","Macintosh","Chrome","148.0.0.0","OS X","10_15_7","https://uencdihehs.cognition.run/?PROLIFIC_PID=69de557321797141093c1604&STUDY_ID=6a270c2e609d6ae583c06396&STUDY_ID=6a270c2e609d6ae583c06396&SESSION_ID=6a272320e29843fe2680de94?PROLIFIC_PID=69de557321797141093c1604&SESSION_ID=6a272320e29843fe2680de94?","en-US,en;q=0.9","69de557321797141093c1604","6a270c2e609d6ae583c06396","6a272320e29843fe2680de94?","69de557321797141093c1604","6a270c2e609d6ae583c06396","6a272320e29843fe2680de94?","30","[14,25,17,18,10,11,8,5,13,7,1,6,27,4,30,22,23,19,12,9,2,24,28,21,29,20,15,26,16,3]","[""P14"",""P25"",""P17"",""U18"",""U10"",""U11"",""U8"",""P5"",""P13"",""U7"",""P1"",""U6"",""P27"",""U4"",""P30"",""P22"",""U23"",""P19"",""P12"",""U9"",""P2"",""P24"",""P28"",""P21"",""U29"",""U20"",""U15"",""P26"",""U16"",""P3""]","[""U14"",""U25"",""U17"",""P18"",""P10"",""P11"",""P8"",""U5"",""U13"",""P7"",""U1"",""P6"",""U27"",""P4"",""U30"",""U22"",""P23"",""U19"",""U12"",""P9"",""U2"",""U24"",""U28"",""U21"",""P29"",""P20"",""P15"",""U26"",""P16"",""U3""]","4","4","0","0","1","1","","null","[""bathroom_v2.mp4""]","null","segmentation_video","","","","","","","","","bathroom_v2.mp4","bathroom","Unpredictable","[2.607428,5.203919,8.135268,13.799591,16.42016,21.310298,23.245516,25.466922,27.492415,32.842407,34.34736]","11","","U4","4","1","14","1.5049530000000004","false","false","false","","false","0","0","false","false","false","false",""
"","","","","","survey-multi-choice","74","2.0.0","1051315","102","1","2026-06-08 20:21:54","segmentation_norming_randomized_order_maxrun_attention_v4","142.114.27.159","Mozilla/5.0 (Macintosh; Intel Mac OS X 10_15_7) AppleWebKit/537.36 (KHTML, like Gecko) Chrome/148.0.0.0 Safari/537.36","Macintosh","Chrome","148.0.0.0","OS X","10_15_7","https://uencdihehs.cognition.run/?PROLIFIC_PID=69de557321797141093c1604&STUDY_ID=6a270c2e609d6ae583c06396&STUDY_ID=6a270c2e609d6ae583c06396&SESSION_ID=6a272320e29843fe2680de94?PROLIFIC_PID=69de557321797141093c1604&SESSION_ID=6a272320e29843fe2680de94?","en-US,en;q=0.9","69de557321797141093c1604","6a270c2e609d6ae583c06396","6a272320e29843fe2680de94?","69de557321797141093c1604","6a270c2e609d6ae583c06396","6a272320e29843fe2680de94?","30","[14,25,17,18,10,11,8,5,13,7,1,6,27,4,30,22,23,19,12,9,2,24,28,21,29,20,15,26,16,3]","[""P14"",""P25"",""P17"",""U18"",""U10"",""U11"",""U8"",""P5"",""P13"",""U7"",""P1"",""U6"",""P27"",""U4"",""P30"",""P22"",""U23"",""P19"",""P12"",""U9"",""P2"",""P24"",""P28"",""P21"",""U29"",""U20"",""U15"",""P26"",""U16"",""P3""]","[""U14"",""U25"",""U17"",""P18"",""P10"",""P11"",""P8"",""U5"",""U13"",""P7"",""U1"",""P6"",""U27"",""P4"",""U30"",""U22"",""P23"",""U19"",""U12"",""P9"",""U2"",""U24"",""U28"",""U21"",""P29"",""P20"",""P15"",""U26"",""P16"",""U3""]","4","4","0","0","1","1","","3169","","{""confidence_rating"":""Very confident""}","confidence_question","[0]","","","","","","","","","bathroom","Unpredictable","","","","U4","4","1","14","","","","","","","","","","","","","Very confident"
"","","","","","video-keyboard-response","75","2.0.0","1088055","102","1","2026-06-08 20:21:54","segmentation_norming_randomized_order_maxrun_attention_v4","142.114.27.159","Mozilla/5.0 (Macintosh; Intel Mac OS X 10_15_7) AppleWebKit/537.36 (KHTML, like Gecko) Chrome/148.0.0.0 Safari/537.36","Macintosh","Chrome","148.0.0.0","OS X","10_15_7","https://uencdihehs.cognition.run/?PROLIFIC_PID=69de557321797141093c1604&STUDY_ID=6a270c2e609d6ae583c06396&STUDY_ID=6a270c2e609d6ae583c06396&SESSION_ID=6a272320e29843fe2680de94?PROLIFIC_PID=69de557321797141093c1604&SESSION_ID=6a272320e29843fe2680de94?","en-US,en;q=0.9","69de557321797141093c1604","6a270c2e609d6ae583c06396","6a272320e29843fe2680de94?","69de557321797141093c1604","6a270c2e609d6ae583c06396","6a272320e29843fe2680de94?","30","[14,25,17,18,10,11,8,5,13,7,1,6,27,4,30,22,23,19,12,9,2,24,28,21,29,20,15,26,16,3]","[""P14"",""P25"",""P17"",""U18"",""U10"",""U11"",""U8"",""P5"",""P13"",""U7"",""P1"",""U6"",""P27"",""U4"",""P30"",""P22"",""U23"",""P19"",""P12"",""U9"",""P2"",""P24"",""P28"",""P21"",""U29"",""U20"",""U15"",""P26"",""U16"",""P3""]","[""U14"",""U25"",""U17"",""P18"",""P10"",""P11"",""P8"",""U5"",""U13"",""P7"",""U1"",""P6"",""U27"",""P4"",""U30"",""U22"",""P23"",""U19"",""U12"",""P9"",""U2"",""U24"",""U28"",""U21"",""P29"",""P20"",""P15"",""U26"",""P16"",""U3""]","4","4","0","0","1","1","","null","[""whiteboard_v1.mp4""]","null","segmentation_video","","","","","","","","","whiteboard_v1.mp4","whiteboard","Predictable","[5.764162,9.082939,12.37876,16.017462,20.535727,26.161381,29.111318,33.146192]","8","","P30","30","1","15","2.949937000000002","false","false","false","","false","0","0","false","false","false","false",""
"","","","","","survey-multi-choice","78","2.0.0","1091881","102","1","2026-06-08 20:21:54","segmentation_norming_randomized_order_maxrun_attention_v4","142.114.27.159","Mozilla/5.0 (Macintosh; Intel Mac OS X 10_15_7) AppleWebKit/537.36 (KHTML, like Gecko) Chrome/148.0.0.0 Safari/537.36","Macintosh","Chrome","148.0.0.0","OS X","10_15_7","https://uencdihehs.cognition.run/?PROLIFIC_PID=69de557321797141093c1604&STUDY_ID=6a270c2e609d6ae583c06396&STUDY_ID=6a270c2e609d6ae583c06396&SESSION_ID=6a272320e29843fe2680de94?PROLIFIC_PID=69de557321797141093c1604&SESSION_ID=6a272320e29843fe2680de94?","en-US,en;q=0.9","69de557321797141093c1604","6a270c2e609d6ae583c06396","6a272320e29843fe2680de94?","69de557321797141093c1604","6a270c2e609d6ae583c06396","6a272320e29843fe2680de94?","30","[14,25,17,18,10,11,8,5,13,7,1,6,27,4,30,22,23,19,12,9,2,24,28,21,29,20,15,26,16,3]","[""P14"",""P25"",""P17"",""U18"",""U10"",""U11"",""U8"",""P5"",""P13"",""U7"",""P1"",""U6"",""P27"",""U4"",""P30"",""P22"",""U23"",""P19"",""P12"",""U9"",""P2"",""P24"",""P28"",""P21"",""U29"",""U20"",""U15"",""P26"",""U16"",""P3""]","[""U14"",""U25"",""U17"",""P18"",""P10"",""P11"",""P8"",""U5"",""U13"",""P7"",""U1"",""P6"",""U27"",""P4"",""U30"",""U22"",""P23"",""U19"",""U12"",""P9"",""U2"",""U24"",""U28"",""U21"",""P29"",""P20"",""P15"",""U26"",""P16"",""U3""]","4","4","0","0","1","1","","3824","","{""confidence_rating"":""Very confident""}","confidence_question","[0]","","","","","","","","","whiteboard","Predictable","","","","P30","30","1","15","","","","","","","","","","","","","Very confident"
"","","","","","video-keyboard-response","79","2.0.0","1111179","102","1","2026-06-08 20:21:54","segmentation_norming_randomized_order_maxrun_attention_v4","142.114.27.159","Mozilla/5.0 (Macintosh; Intel Mac OS X 10_15_7) AppleWebKit/537.36 (KHTML, like Gecko) Chrome/148.0.0.0 Safari/537.36","Macintosh","Chrome","148.0.0.0","OS X","10_15_7","https://uencdihehs.cognition.run/?PROLIFIC_PID=69de557321797141093c1604&STUDY_ID=6a270c2e609d6ae583c06396&STUDY_ID=6a270c2e609d6ae583c06396&SESSION_ID=6a272320e29843fe2680de94?PROLIFIC_PID=69de557321797141093c1604&SESSION_ID=6a272320e29843fe2680de94?","en-US,en;q=0.9","69de557321797141093c1604","6a270c2e609d6ae583c06396","6a272320e29843fe2680de94?","69de557321797141093c1604","6a270c2e609d6ae583c06396","6a272320e29843fe2680de94?","30","[14,25,17,18,10,11,8,5,13,7,1,6,27,4,30,22,23,19,12,9,2,24,28,21,29,20,15,26,16,3]","[""P14"",""P25"",""P17"",""U18"",""U10"",""U11"",""U8"",""P5"",""P13"",""U7"",""P1"",""U6"",""P27"",""U4"",""P30"",""P22"",""U23"",""P19"",""P12"",""U9"",""P2"",""P24"",""P28"",""P21"",""U29"",""U20"",""U15"",""P26"",""U16"",""P3""]","[""U14"",""U25"",""U17"",""P18"",""P10"",""P11"",""P8"",""U5"",""U13"",""P7"",""U1"",""P6"",""U27"",""P4"",""U30"",""U22"",""P23"",""U19"",""U12"",""P9"",""U2"",""U24"",""U28"",""U21"",""P29"",""P20"",""P15"",""U26"",""P16"",""U3""]","4","4","0","0","1","1","","null","[""record_v1.mp4""]","null","segmentation_video","","","","","","","","","record_v1.mp4","record","Predictable","[2.529779,6.439594,10.608826,12.154645,17.138469]","5","","P22","22","1","16","1.5458189999999998","false","false","false","","false","0","0","false","false","false","false",""
"","","","","","survey-multi-choice","82","2.0.0","1149112","102","1","2026-06-08 20:21:54","segmentation_norming_randomized_order_maxrun_attention_v4","142.114.27.159","Mozilla/5.0 (Macintosh; Intel Mac OS X 10_15_7) AppleWebKit/537.36 (KHTML, like Gecko) Chrome/148.0.0.0 Safari/537.36","Macintosh","Chrome","148.0.0.0","OS X","10_15_7","https://uencdihehs.cognition.run/?PROLIFIC_PID=69de557321797141093c1604&STUDY_ID=6a270c2e609d6ae583c06396&STUDY_ID=6a270c2e609d6ae583c06396&SESSION_ID=6a272320e29843fe2680de94?PROLIFIC_PID=69de557321797141093c1604&SESSION_ID=6a272320e29843fe2680de94?","en-US,en;q=0.9","69de557321797141093c1604","6a270c2e609d6ae583c06396","6a272320e29843fe2680de94?","69de557321797141093c1604","6a270c2e609d6ae583c06396","6a272320e29843fe2680de94?","30","[14,25,17,18,10,11,8,5,13,7,1,6,27,4,30,22,23,19,12,9,2,24,28,21,29,20,15,26,16,3]","[""P14"",""P25"",""P17"",""U18"",""U10"",""U11"",""U8"",""P5"",""P13"",""U7"",""P1"",""U6"",""P27"",""U4"",""P30"",""P22"",""U23"",""P19"",""P12"",""U9"",""P2"",""P24"",""P28"",""P21"",""U29"",""U20"",""U15"",""P26"",""U16"",""P3""]","[""U14"",""U25"",""U17"",""P18"",""P10"",""P11"",""P8"",""U5"",""U13"",""P7"",""U1"",""P6"",""U27"",""P4"",""U30"",""U22"",""P23"",""U19"",""U12"",""P9"",""U2"",""U24"",""U28"",""U21"",""P29"",""P20"",""P15"",""U26"",""P16"",""U3""]","4","4","0","0","1","1","","37932","","{""confidence_rating"":""Very confident""}","confidence_question","[0]","","","","","","","","","record","Predictable","","","","P22","22","1","16","","","","","","","","","","","","","Very confident"
"","","","","","video-keyboard-response","83","2.0.0","1161156","102","1","2026-06-08 20:21:54","segmentation_norming_randomized_order_maxrun_attention_v4","142.114.27.159","Mozilla/5.0 (Macintosh; Intel Mac OS X 10_15_7) AppleWebKit/537.36 (KHTML, like Gecko) Chrome/148.0.0.0 Safari/537.36","Macintosh","Chrome","148.0.0.0","OS X","10_15_7","https://uencdihehs.cognition.run/?PROLIFIC_PID=69de557321797141093c1604&STUDY_ID=6a270c2e609d6ae583c06396&STUDY_ID=6a270c2e609d6ae583c06396&SESSION_ID=6a272320e29843fe2680de94?PROLIFIC_PID=69de557321797141093c1604&SESSION_ID=6a272320e29843fe2680de94?","en-US,en;q=0.9","69de557321797141093c1604","6a270c2e609d6ae583c06396","6a272320e29843fe2680de94?","69de557321797141093c1604","6a270c2e609d6ae583c06396","6a272320e29843fe2680de94?","30","[14,25,17,18,10,11,8,5,13,7,1,6,27,4,30,22,23,19,12,9,2,24,28,21,29,20,15,26,16,3]","[""P14"",""P25"",""P17"",""U18"",""U10"",""U11"",""U8"",""P5"",""P13"",""U7"",""P1"",""U6"",""P27"",""U4"",""P30"",""P22"",""U23"",""P19"",""P12"",""U9"",""P2"",""P24"",""P28"",""P21"",""U29"",""U20"",""U15"",""P26"",""U16"",""P3""]","[""U14"",""U25"",""U17"",""P18"",""P10"",""P11"",""P8"",""U5"",""U13"",""P7"",""U1"",""P6"",""U27"",""P4"",""U30"",""U22"",""P23"",""U19"",""U12"",""P9"",""U2"",""U24"",""U28"",""U21"",""P29"",""P20"",""P15"",""U26"",""P16"",""U3""]","4","4","0","0","1","1","","null","[""shopping_v2.mp4""]","null","segmentation_video","","","","","","","","","shopping_v2.mp4","shopping","Unpredictable","[4.540896,7.327957,9.529994]","3","","U23","23","1","17","2.2020370000000007","false","false","false","","false","0","0","false","false","false","false",""
"","","","","","survey-multi-choice","86","2.0.0","1164591","102","1","2026-06-08 20:21:54","segmentation_norming_randomized_order_maxrun_attention_v4","142.114.27.159","Mozilla/5.0 (Macintosh; Intel Mac OS X 10_15_7) AppleWebKit/537.36 (KHTML, like Gecko) Chrome/148.0.0.0 Safari/537.36","Macintosh","Chrome","148.0.0.0","OS X","10_15_7","https://uencdihehs.cognition.run/?PROLIFIC_PID=69de557321797141093c1604&STUDY_ID=6a270c2e609d6ae583c06396&STUDY_ID=6a270c2e609d6ae583c06396&SESSION_ID=6a272320e29843fe2680de94?PROLIFIC_PID=69de557321797141093c1604&SESSION_ID=6a272320e29843fe2680de94?","en-US,en;q=0.9","69de557321797141093c1604","6a270c2e609d6ae583c06396","6a272320e29843fe2680de94?","69de557321797141093c1604","6a270c2e609d6ae583c06396","6a272320e29843fe2680de94?","30","[14,25,17,18,10,11,8,5,13,7,1,6,27,4,30,22,23,19,12,9,2,24,28,21,29,20,15,26,16,3]","[""P14"",""P25"",""P17"",""U18"",""U10"",""U11"",""U8"",""P5"",""P13"",""U7"",""P1"",""U6"",""P27"",""U4"",""P30"",""P22"",""U23"",""P19"",""P12"",""U9"",""P2"",""P24"",""P28"",""P21"",""U29"",""U20"",""U15"",""P26"",""U16"",""P3""]","[""U14"",""U25"",""U17"",""P18"",""P10"",""P11"",""P8"",""U5"",""U13"",""P7"",""U1"",""P6"",""U27"",""P4"",""U30"",""U22"",""P23"",""U19"",""U12"",""P9"",""U2"",""U24"",""U28"",""U21"",""P29"",""P20"",""P15"",""U26"",""P16"",""U3""]","4","4","0","0","1","1","","3433","","{""confidence_rating"":""Very confident""}","confidence_question","[0]","","","","","","","","","shopping","Unpredictable","","","","U23","23","1","17","","","","","","","","","","","","","Very confident"
"","","","","","video-keyboard-response","87","2.0.0","1199939","102","1","2026-06-08 20:21:54","segmentation_norming_randomized_order_maxrun_attention_v4","142.114.27.159","Mozilla/5.0 (Macintosh; Intel Mac OS X 10_15_7) AppleWebKit/537.36 (KHTML, like Gecko) Chrome/148.0.0.0 Safari/537.36","Macintosh","Chrome","148.0.0.0","OS X","10_15_7","https://uencdihehs.cognition.run/?PROLIFIC_PID=69de557321797141093c1604&STUDY_ID=6a270c2e609d6ae583c06396&STUDY_ID=6a270c2e609d6ae583c06396&SESSION_ID=6a272320e29843fe2680de94?PROLIFIC_PID=69de557321797141093c1604&SESSION_ID=6a272320e29843fe2680de94?","en-US,en;q=0.9","69de557321797141093c1604","6a270c2e609d6ae583c06396","6a272320e29843fe2680de94?","69de557321797141093c1604","6a270c2e609d6ae583c06396","6a272320e29843fe2680de94?","30","[14,25,17,18,10,11,8,5,13,7,1,6,27,4,30,22,23,19,12,9,2,24,28,21,29,20,15,26,16,3]","[""P14"",""P25"",""P17"",""U18"",""U10"",""U11"",""U8"",""P5"",""P13"",""U7"",""P1"",""U6"",""P27"",""U4"",""P30"",""P22"",""U23"",""P19"",""P12"",""U9"",""P2"",""P24"",""P28"",""P21"",""U29"",""U20"",""U15"",""P26"",""U16"",""P3""]","[""U14"",""U25"",""U17"",""P18"",""P10"",""P11"",""P8"",""U5"",""U13"",""P7"",""U1"",""P6"",""U27"",""P4"",""U30"",""U22"",""P23"",""U19"",""U12"",""P9"",""U2"",""U24"",""U28"",""U21"",""P29"",""P20"",""P15"",""U26"",""P16"",""U3""]","4","4","0","0","1","1","","null","[""party_v1.mp4""]","null","segmentation_video","","","","","","","","","party_v1.mp4","party","Predictable","[2.533539,10.330715,17.455174,22.709655,26.187942,27.931501,34.165852]","7","","P19","19","1","18","1.7435590000000012","false","false","false","","false","0","0","false","false","false","false",""
"","","","","","survey-multi-choice","90","2.0.0","1218018","102","1","2026-06-08 20:21:54","segmentation_norming_randomized_order_maxrun_attention_v4","142.114.27.159","Mozilla/5.0 (Macintosh; Intel Mac OS X 10_15_7) AppleWebKit/537.36 (KHTML, like Gecko) Chrome/148.0.0.0 Safari/537.36","Macintosh","Chrome","148.0.0.0","OS X","10_15_7","https://uencdihehs.cognition.run/?PROLIFIC_PID=69de557321797141093c1604&STUDY_ID=6a270c2e609d6ae583c06396&STUDY_ID=6a270c2e609d6ae583c06396&SESSION_ID=6a272320e29843fe2680de94?PROLIFIC_PID=69de557321797141093c1604&SESSION_ID=6a272320e29843fe2680de94?","en-US,en;q=0.9","69de557321797141093c1604","6a270c2e609d6ae583c06396","6a272320e29843fe2680de94?","69de557321797141093c1604","6a270c2e609d6ae583c06396","6a272320e29843fe2680de94?","30","[14,25,17,18,10,11,8,5,13,7,1,6,27,4,30,22,23,19,12,9,2,24,28,21,29,20,15,26,16,3]","[""P14"",""P25"",""P17"",""U18"",""U10"",""U11"",""U8"",""P5"",""P13"",""U7"",""P1"",""U6"",""P27"",""U4"",""P30"",""P22"",""U23"",""P19"",""P12"",""U9"",""P2"",""P24"",""P28"",""P21"",""U29"",""U20"",""U15"",""P26"",""U16"",""P3""]","[""U14"",""U25"",""U17"",""P18"",""P10"",""P11"",""P8"",""U5"",""U13"",""P7"",""U1"",""P6"",""U27"",""P4"",""U30"",""U22"",""P23"",""U19"",""U12"",""P9"",""U2"",""U24"",""U28"",""U21"",""P29"",""P20"",""P15"",""U26"",""P16"",""U3""]","4","4","0","0","1","1","","18077","","{""confidence_rating"":""Very confident""}","confidence_question","[0]","","","","","","","","","party","Predictable","","","","P19","19","1","18","","","","","","","","","","","","","Very confident"
"","","","","","video-keyboard-response","91","2.0.0","1253936","102","1","2026-06-08 20:21:54","segmentation_norming_randomized_order_maxrun_attention_v4","142.114.27.159","Mozilla/5.0 (Macintosh; Intel Mac OS X 10_15_7) AppleWebKit/537.36 (KHTML, like Gecko) Chrome/148.0.0.0 Safari/537.36","Macintosh","Chrome","148.0.0.0","OS X","10_15_7","https://uencdihehs.cognition.run/?PROLIFIC_PID=69de557321797141093c1604&STUDY_ID=6a270c2e609d6ae583c06396&STUDY_ID=6a270c2e609d6ae583c06396&SESSION_ID=6a272320e29843fe2680de94?PROLIFIC_PID=69de557321797141093c1604&SESSION_ID=6a272320e29843fe2680de94?","en-US,en;q=0.9","69de557321797141093c1604","6a270c2e609d6ae583c06396","6a272320e29843fe2680de94?","69de557321797141093c1604","6a270c2e609d6ae583c06396","6a272320e29843fe2680de94?","30","[14,25,17,18,10,11,8,5,13,7,1,6,27,4,30,22,23,19,12,9,2,24,28,21,29,20,15,26,16,3]","[""P14"",""P25"",""P17"",""U18"",""U10"",""U11"",""U8"",""P5"",""P13"",""U7"",""P1"",""U6"",""P27"",""U4"",""P30"",""P22"",""U23"",""P19"",""P12"",""U9"",""P2"",""P24"",""P28"",""P21"",""U29"",""U20"",""U15"",""P26"",""U16"",""P3""]","[""U14"",""U25"",""U17"",""P18"",""P10"",""P11"",""P8"",""U5"",""U13"",""P7"",""U1"",""P6"",""U27"",""P4"",""U30"",""U22"",""P23"",""U19"",""U12"",""P9"",""U2"",""U24"",""U28"",""U21"",""P29"",""P20"",""P15"",""U26"",""P16"",""U3""]","4","4","0","0","1","1","","null","[""football_v1.mp4""]","null","segmentation_video","","","","","","","","","football_v1.mp4","football","Predictable","[4.59524,10.890067,14.446331,16.328104,22.083794,27.743751,30.072876,34.104771]","8","","P12","12","1","19","1.881772999999999","false","false","false","","false","0","0","false","false","false","false",""
"","","","","","survey-multi-choice","94","2.0.0","1257884","102","1","2026-06-08 20:21:54","segmentation_norming_randomized_order_maxrun_attention_v4","142.114.27.159","Mozilla/5.0 (Macintosh; Intel Mac OS X 10_15_7) AppleWebKit/537.36 (KHTML, like Gecko) Chrome/148.0.0.0 Safari/537.36","Macintosh","Chrome","148.0.0.0","OS X","10_15_7","https://uencdihehs.cognition.run/?PROLIFIC_PID=69de557321797141093c1604&STUDY_ID=6a270c2e609d6ae583c06396&STUDY_ID=6a270c2e609d6ae583c06396&SESSION_ID=6a272320e29843fe2680de94?PROLIFIC_PID=69de557321797141093c1604&SESSION_ID=6a272320e29843fe2680de94?","en-US,en;q=0.9","69de557321797141093c1604","6a270c2e609d6ae583c06396","6a272320e29843fe2680de94?","69de557321797141093c1604","6a270c2e609d6ae583c06396","6a272320e29843fe2680de94?","30","[14,25,17,18,10,11,8,5,13,7,1,6,27,4,30,22,23,19,12,9,2,24,28,21,29,20,15,26,16,3]","[""P14"",""P25"",""P17"",""U18"",""U10"",""U11"",""U8"",""P5"",""P13"",""U7"",""P1"",""U6"",""P27"",""U4"",""P30"",""P22"",""U23"",""P19"",""P12"",""U9"",""P2"",""P24"",""P28"",""P21"",""U29"",""U20"",""U15"",""P26"",""U16"",""P3""]","[""U14"",""U25"",""U17"",""P18"",""P10"",""P11"",""P8"",""U5"",""U13"",""P7"",""U1"",""P6"",""U27"",""P4"",""U30"",""U22"",""P23"",""U19"",""U12"",""P9"",""U2"",""U24"",""U28"",""U21"",""P29"",""P20"",""P15"",""U26"",""P16"",""U3""]","4","4","0","0","1","1","","3946","","{""confidence_rating"":""Very confident""}","confidence_question","[0]","","","","","","","","","football","Predictable","","","","P12","12","1","19","","","","","","","","","","","","","Very confident"
"","","","","","video-keyboard-response","95","2.0.0","1295789","102","1","2026-06-08 20:21:54","segmentation_norming_randomized_order_maxrun_attention_v4","142.114.27.159","Mozilla/5.0 (Macintosh; Intel Mac OS X 10_15_7) AppleWebKit/537.36 (KHTML, like Gecko) Chrome/148.0.0.0 Safari/537.36","Macintosh","Chrome","148.0.0.0","OS X","10_15_7","https://uencdihehs.cognition.run/?PROLIFIC_PID=69de557321797141093c1604&STUDY_ID=6a270c2e609d6ae583c06396&STUDY_ID=6a270c2e609d6ae583c06396&SESSION_ID=6a272320e29843fe2680de94?PROLIFIC_PID=69de557321797141093c1604&SESSION_ID=6a272320e29843fe2680de94?","en-US,en;q=0.9","69de557321797141093c1604","6a270c2e609d6ae583c06396","6a272320e29843fe2680de94?","69de557321797141093c1604","6a270c2e609d6ae583c06396","6a272320e29843fe2680de94?","30","[14,25,17,18,10,11,8,5,13,7,1,6,27,4,30,22,23,19,12,9,2,24,28,21,29,20,15,26,16,3]","[""P14"",""P25"",""P17"",""U18"",""U10"",""U11"",""U8"",""P5"",""P13"",""U7"",""P1"",""U6"",""P27"",""U4"",""P30"",""P22"",""U23"",""P19"",""P12"",""U9"",""P2"",""P24"",""P28"",""P21"",""U29"",""U20"",""U15"",""P26"",""U16"",""P3""]","[""U14"",""U25"",""U17"",""P18"",""P10"",""P11"",""P8"",""U5"",""U13"",""P7"",""U1"",""P6"",""U27"",""P4"",""U30"",""U22"",""P23"",""U19"",""U12"",""P9"",""U2"",""U24"",""U28"",""U21"",""P29"",""P20"",""P15"",""U26"",""P16"",""U3""]","4","4","0","0","1","1","","null","[""cereal_v2.mp4""]","null","segmentation_video","","","","","","","","","cereal_v2.mp4","cereal","Unpredictable","[1.634898,8.715735,10.388233,14.387284,18.485938,27.563717,31.1277,35.463319]","8","","U9","9","1","20","1.6724979999999992","false","false","false","","false","0","0","false","false","false","false",""
"","","","","","survey-multi-choice","98","2.0.0","1300014","102","1","2026-06-08 20:21:54","segmentation_norming_randomized_order_maxrun_attention_v4","142.114.27.159","Mozilla/5.0 (Macintosh; Intel Mac OS X 10_15_7) AppleWebKit/537.36 (KHTML, like Gecko) Chrome/148.0.0.0 Safari/537.36","Macintosh","Chrome","148.0.0.0","OS X","10_15_7","https://uencdihehs.cognition.run/?PROLIFIC_PID=69de557321797141093c1604&STUDY_ID=6a270c2e609d6ae583c06396&STUDY_ID=6a270c2e609d6ae583c06396&SESSION_ID=6a272320e29843fe2680de94?PROLIFIC_PID=69de557321797141093c1604&SESSION_ID=6a272320e29843fe2680de94?","en-US,en;q=0.9","69de557321797141093c1604","6a270c2e609d6ae583c06396","6a272320e29843fe2680de94?","69de557321797141093c1604","6a270c2e609d6ae583c06396","6a272320e29843fe2680de94?","30","[14,25,17,18,10,11,8,5,13,7,1,6,27,4,30,22,23,19,12,9,2,24,28,21,29,20,15,26,16,3]","[""P14"",""P25"",""P17"",""U18"",""U10"",""U11"",""U8"",""P5"",""P13"",""U7"",""P1"",""U6"",""P27"",""U4"",""P30"",""P22"",""U23"",""P19"",""P12"",""U9"",""P2"",""P24"",""P28"",""P21"",""U29"",""U20"",""U15"",""P26"",""U16"",""P3""]","[""U14"",""U25"",""U17"",""P18"",""P10"",""P11"",""P8"",""U5"",""U13"",""P7"",""U1"",""P6"",""U27"",""P4"",""U30"",""U22"",""P23"",""U19"",""U12"",""P9"",""U2"",""U24"",""U28"",""U21"",""P29"",""P20"",""P15"",""U26"",""P16"",""U3""]","4","4","0","0","1","1","","4223","","{""confidence_rating"":""Very confident""}","confidence_question","[0]","","","","","","","","","cereal","Unpredictable","","","","U9","9","1","20","","","","","","","","","","","","","Very confident"
"","","","","","video-keyboard-response","99","2.0.0","1327958","102","1","2026-06-08 20:21:54","segmentation_norming_randomized_order_maxrun_attention_v4","142.114.27.159","Mozilla/5.0 (Macintosh; Intel Mac OS X 10_15_7) AppleWebKit/537.36 (KHTML, like Gecko) Chrome/148.0.0.0 Safari/537.36","Macintosh","Chrome","148.0.0.0","OS X","10_15_7","https://uencdihehs.cognition.run/?PROLIFIC_PID=69de557321797141093c1604&STUDY_ID=6a270c2e609d6ae583c06396&STUDY_ID=6a270c2e609d6ae583c06396&SESSION_ID=6a272320e29843fe2680de94?PROLIFIC_PID=69de557321797141093c1604&SESSION_ID=6a272320e29843fe2680de94?","en-US,en;q=0.9","69de557321797141093c1604","6a270c2e609d6ae583c06396","6a272320e29843fe2680de94?","69de557321797141093c1604","6a270c2e609d6ae583c06396","6a272320e29843fe2680de94?","30","[14,25,17,18,10,11,8,5,13,7,1,6,27,4,30,22,23,19,12,9,2,24,28,21,29,20,15,26,16,3]","[""P14"",""P25"",""P17"",""U18"",""U10"",""U11"",""U8"",""P5"",""P13"",""U7"",""P1"",""U6"",""P27"",""U4"",""P30"",""P22"",""U23"",""P19"",""P12"",""U9"",""P2"",""P24"",""P28"",""P21"",""U29"",""U20"",""U15"",""P26"",""U16"",""P3""]","[""U14"",""U25"",""U17"",""P18"",""P10"",""P11"",""P8"",""U5"",""U13"",""P7"",""U1"",""P6"",""U27"",""P4"",""U30"",""U22"",""P23"",""U19"",""U12"",""P9"",""U2"",""U24"",""U28"",""U21"",""P29"",""P20"",""P15"",""U26"",""P16"",""U3""]","4","4","0","0","1","1","","null","[""balcony_v1.mp4""]","null","segmentation_video","","","","","","","","","balcony_v1.mp4","balcony","Predictable","[1.643322,4.605678,8.045359,13.044408,16.626651,22.96562,26.483369]","7","","P2","2","1","21","2.962356","false","false","false","","false","0","0","false","false","false","false",""
"","","","","","survey-multi-choice","102","2.0.0","1332266","102","1","2026-06-08 20:21:54","segmentation_norming_randomized_order_maxrun_attention_v4","142.114.27.159","Mozilla/5.0 (Macintosh; Intel Mac OS X 10_15_7) AppleWebKit/537.36 (KHTML, like Gecko) Chrome/148.0.0.0 Safari/537.36","Macintosh","Chrome","148.0.0.0","OS X","10_15_7","https://uencdihehs.cognition.run/?PROLIFIC_PID=69de557321797141093c1604&STUDY_ID=6a270c2e609d6ae583c06396&STUDY_ID=6a270c2e609d6ae583c06396&SESSION_ID=6a272320e29843fe2680de94?PROLIFIC_PID=69de557321797141093c1604&SESSION_ID=6a272320e29843fe2680de94?","en-US,en;q=0.9","69de557321797141093c1604","6a270c2e609d6ae583c06396","6a272320e29843fe2680de94?","69de557321797141093c1604","6a270c2e609d6ae583c06396","6a272320e29843fe2680de94?","30","[14,25,17,18,10,11,8,5,13,7,1,6,27,4,30,22,23,19,12,9,2,24,28,21,29,20,15,26,16,3]","[""P14"",""P25"",""P17"",""U18"",""U10"",""U11"",""U8"",""P5"",""P13"",""U7"",""P1"",""U6"",""P27"",""U4"",""P30"",""P22"",""U23"",""P19"",""P12"",""U9"",""P2"",""P24"",""P28"",""P21"",""U29"",""U20"",""U15"",""P26"",""U16"",""P3""]","[""U14"",""U25"",""U17"",""P18"",""P10"",""P11"",""P8"",""U5"",""U13"",""P7"",""U1"",""P6"",""U27"",""P4"",""U30"",""U22"",""P23"",""U19"",""U12"",""P9"",""U2"",""U24"",""U28"",""U21"",""P29"",""P20"",""P15"",""U26"",""P16"",""U3""]","4","4","0","0","1","1","","4305","","{""confidence_rating"":""Very confident""}","confidence_question","[0]","","","","","","","","","balcony","Predictable","","","","P2","2","1","21","","","","","","","","","","","","","Very confident"
