"success","timeout","failed_images","failed_audio","failed_video","trial_type","trial_index","plugin_version","time_elapsed","run_id","condition","recorded_at","source_code_version","ip","user_agent","device","browser","browser_version","platform","platform_version","referer","accept_language","PROLIFIC_PID","STUDY_ID","SESSION_ID","subject_id","study_id","session_id","pair_count","randomized_pair_order","block1_codes","block2_codes","max_run_block1","max_run_block2","fullscreen_exit_count","tab_switch_count","video_attention_failure_count","total_attention_violation_count","view_history","rt","stimulus","response","trial_kind","question_order","spacebar_question_answer","attention_question_answer","spacebar_question_correct","attention_question_correct","instruction_check_passed","demo_index","demo_code","stimulus_file","stimulus_name","predictability","boundary_times_sec","boundary_count","value","video_code","pair_number","block","global_position_in_block","min_press_gap_sec","no_press_failure","rapid_press_failure","video_attention_failed","video_attention_failure_type","last_video_had_any_attention_violation","current_video_fullscreen_exit_count","current_video_tab_switch_count","current_video_had_fullscreen_exit","current_video_had_tab_switch","current_video_had_video_attention_failure","skipped_video_debug","confidence_rating"
"true","false","[]","[]","[]","preload","0","2.0.0","5356","70","1","2026-06-08 14:07:30","segmentation_norming_randomized_order_maxrun_attention_v4","75.159.35.253","Mozilla/5.0 (Macintosh; Intel Mac OS X 10_15_7) AppleWebKit/537.36 (KHTML, like Gecko) Chrome/148.0.0.0 Safari/537.36","Macintosh","Chrome","148.0.0.0","OS X","10_15_7","https://uencdihehs.cognition.run/?PROLIFIC_PID=69ebf7ef9b1f438ecd629727&STUDY_ID=6a230fc25d128c9d1b56061a&STUDY_ID=6a230fc25d128c9d1b56061a&SESSION_ID=6a26cc9232399d330febc0da?PROLIFIC_PID=69ebf7ef9b1f438ecd629727&SESSION_ID=6a26cc9232399d330febc0da?","en-US,en;q=0.9","69ebf7ef9b1f438ecd629727","6a230fc25d128c9d1b56061a","6a26cc9232399d330febc0da?","69ebf7ef9b1f438ecd629727","6a230fc25d128c9d1b56061a","6a26cc9232399d330febc0da?","30","[24,23,12,1,25,20,21,16,27,7,15,18,4,3,2,10,29,9,13,28,19,26,6,11,5,30,17,14,8,22]","[""P24"",""P23"",""U12"",""P1"",""P25"",""P20"",""U21"",""U16"",""U27"",""U7"",""P15"",""P18"",""U4"",""P3"",""P2"",""U10"",""U29"",""U9"",""U13"",""U28"",""P19"",""U26"",""U6"",""P11"",""U5"",""U30"",""U17"",""P14"",""P8"",""P22""]","[""U24"",""U23"",""P12"",""U1"",""U25"",""U20"",""P21"",""P16"",""P27"",""P7"",""U15"",""U18"",""P4"",""U3"",""U2"",""P10"",""P29"",""P9"",""P13"",""P28"",""U19"",""P26"",""P6"",""U11"",""P5"",""P30"",""P17"",""U14"",""U8"",""U22""]","5","5","0","0","0","0","","","","","","","","","","","","","","","","","","","","","","","","","","","","","","","","","","","",""
"","","","","","instructions","1","2.0.0","14408","70","1","2026-06-08 14:07:30","segmentation_norming_randomized_order_maxrun_attention_v4","75.159.35.253","Mozilla/5.0 (Macintosh; Intel Mac OS X 10_15_7) AppleWebKit/537.36 (KHTML, like Gecko) Chrome/148.0.0.0 Safari/537.36","Macintosh","Chrome","148.0.0.0","OS X","10_15_7","https://uencdihehs.cognition.run/?PROLIFIC_PID=69ebf7ef9b1f438ecd629727&STUDY_ID=6a230fc25d128c9d1b56061a&STUDY_ID=6a230fc25d128c9d1b56061a&SESSION_ID=6a26cc9232399d330febc0da?PROLIFIC_PID=69ebf7ef9b1f438ecd629727&SESSION_ID=6a26cc9232399d330febc0da?","en-US,en;q=0.9","69ebf7ef9b1f438ecd629727","6a230fc25d128c9d1b56061a","6a26cc9232399d330febc0da?","69ebf7ef9b1f438ecd629727","6a230fc25d128c9d1b56061a","6a26cc9232399d330febc0da?","30","[24,23,12,1,25,20,21,16,27,7,15,18,4,3,2,10,29,9,13,28,19,26,6,11,5,30,17,14,8,22]","[""P24"",""P23"",""U12"",""P1"",""P25"",""P20"",""U21"",""U16"",""U27"",""U7"",""P15"",""P18"",""U4"",""P3"",""P2"",""U10"",""U29"",""U9"",""U13"",""U28"",""P19"",""U26"",""U6"",""P11"",""U5"",""U30"",""U17"",""P14"",""P8"",""P22""]","[""U24"",""U23"",""P12"",""U1"",""U25"",""U20"",""P21"",""P16"",""P27"",""P7"",""U15"",""U18"",""P4"",""U3"",""U2"",""P10"",""P29"",""P9"",""P13"",""P28"",""U19"",""P26"",""P6"",""U11"",""P5"",""P30"",""P17"",""U14"",""U8"",""U22""]","5","5","0","0","0","0","[{""page_index"":0,""viewing_time"":9051}]","9051","","","","","","","","","","","","","","","","","","","","","","","","","","","","","","","","","",""
"true","","","","","fullscreen","2","2.0.0","18364","70","1","2026-06-08 14:07:30","segmentation_norming_randomized_order_maxrun_attention_v4","75.159.35.253","Mozilla/5.0 (Macintosh; Intel Mac OS X 10_15_7) AppleWebKit/537.36 (KHTML, like Gecko) Chrome/148.0.0.0 Safari/537.36","Macintosh","Chrome","148.0.0.0","OS X","10_15_7","https://uencdihehs.cognition.run/?PROLIFIC_PID=69ebf7ef9b1f438ecd629727&STUDY_ID=6a230fc25d128c9d1b56061a&STUDY_ID=6a230fc25d128c9d1b56061a&SESSION_ID=6a26cc9232399d330febc0da?PROLIFIC_PID=69ebf7ef9b1f438ecd629727&SESSION_ID=6a26cc9232399d330febc0da?","en-US,en;q=0.9","69ebf7ef9b1f438ecd629727","6a230fc25d128c9d1b56061a","6a26cc9232399d330febc0da?","69ebf7ef9b1f438ecd629727","6a230fc25d128c9d1b56061a","6a26cc9232399d330febc0da?","30","[24,23,12,1,25,20,21,16,27,7,15,18,4,3,2,10,29,9,13,28,19,26,6,11,5,30,17,14,8,22]","[""P24"",""P23"",""U12"",""P1"",""P25"",""P20"",""U21"",""U16"",""U27"",""U7"",""P15"",""P18"",""U4"",""P3"",""P2"",""U10"",""U29"",""U9"",""U13"",""U28"",""P19"",""U26"",""U6"",""P11"",""U5"",""U30"",""U17"",""P14"",""P8"",""P22""]","[""U24"",""U23"",""P12"",""U1"",""U25"",""U20"",""P21"",""P16"",""P27"",""P7"",""U15"",""U18"",""P4"",""U3"",""U2"",""P10"",""P29"",""P9"",""P13"",""P28"",""U19"",""P26"",""P6"",""U11"",""P5"",""P30"",""P17"",""U14"",""U8"",""U22""]","5","5","0","0","0","0","","2951","","","","","","","","","","","","","","","","","","","","","","","","","","","","","","","","","",""
"","","","","","html-button-response","3","2.0.0","31437","70","1","2026-06-08 14:07:30","segmentation_norming_randomized_order_maxrun_attention_v4","75.159.35.253","Mozilla/5.0 (Macintosh; Intel Mac OS X 10_15_7) AppleWebKit/537.36 (KHTML, like Gecko) Chrome/148.0.0.0 Safari/537.36","Macintosh","Chrome","148.0.0.0","OS X","10_15_7","https://uencdihehs.cognition.run/?PROLIFIC_PID=69ebf7ef9b1f438ecd629727&STUDY_ID=6a230fc25d128c9d1b56061a&STUDY_ID=6a230fc25d128c9d1b56061a&SESSION_ID=6a26cc9232399d330febc0da?PROLIFIC_PID=69ebf7ef9b1f438ecd629727&SESSION_ID=6a26cc9232399d330febc0da?","en-US,en;q=0.9","69ebf7ef9b1f438ecd629727","6a230fc25d128c9d1b56061a","6a26cc9232399d330febc0da?","69ebf7ef9b1f438ecd629727","6a230fc25d128c9d1b56061a","6a26cc9232399d330febc0da?","30","[24,23,12,1,25,20,21,16,27,7,15,18,4,3,2,10,29,9,13,28,19,26,6,11,5,30,17,14,8,22]","[""P24"",""P23"",""U12"",""P1"",""P25"",""P20"",""U21"",""U16"",""U27"",""U7"",""P15"",""P18"",""U4"",""P3"",""P2"",""U10"",""U29"",""U9"",""U13"",""U28"",""P19"",""U26"",""U6"",""P11"",""U5"",""U30"",""U17"",""P14"",""P8"",""P22""]","[""U24"",""U23"",""P12"",""U1"",""U25"",""U20"",""P21"",""P16"",""P27"",""P7"",""U15"",""U18"",""P4"",""U3"",""U2"",""P10"",""P29"",""P9"",""P13"",""P28"",""U19"",""P26"",""P6"",""U11"",""P5"",""P30"",""P17"",""U14"",""U8"",""U22""]","5","5","0","0","0","0","","13071","The experiment requires continuous attention and full-screen participation throughout the task.<br><br>You may be asked to exit the experiment and cancel your participation if you exit Full Screen Mode, switch tabs, or fail to meet the attention criteria more than the allowed number of times.<br><br>Please read the following instructions carefully.","0","","","","","","","","","","","","","","","","","","","","","","","","","","","","","","","",""
"","","","","","instructions","4","2.0.0","47960","70","1","2026-06-08 14:07:30","segmentation_norming_randomized_order_maxrun_attention_v4","75.159.35.253","Mozilla/5.0 (Macintosh; Intel Mac OS X 10_15_7) AppleWebKit/537.36 (KHTML, like Gecko) Chrome/148.0.0.0 Safari/537.36","Macintosh","Chrome","148.0.0.0","OS X","10_15_7","https://uencdihehs.cognition.run/?PROLIFIC_PID=69ebf7ef9b1f438ecd629727&STUDY_ID=6a230fc25d128c9d1b56061a&STUDY_ID=6a230fc25d128c9d1b56061a&SESSION_ID=6a26cc9232399d330febc0da?PROLIFIC_PID=69ebf7ef9b1f438ecd629727&SESSION_ID=6a26cc9232399d330febc0da?","en-US,en;q=0.9","69ebf7ef9b1f438ecd629727","6a230fc25d128c9d1b56061a","6a26cc9232399d330febc0da?","69ebf7ef9b1f438ecd629727","6a230fc25d128c9d1b56061a","6a26cc9232399d330febc0da?","30","[24,23,12,1,25,20,21,16,27,7,15,18,4,3,2,10,29,9,13,28,19,26,6,11,5,30,17,14,8,22]","[""P24"",""P23"",""U12"",""P1"",""P25"",""P20"",""U21"",""U16"",""U27"",""U7"",""P15"",""P18"",""U4"",""P3"",""P2"",""U10"",""U29"",""U9"",""U13"",""U28"",""P19"",""U26"",""U6"",""P11"",""U5"",""U30"",""U17"",""P14"",""P8"",""P22""]","[""U24"",""U23"",""P12"",""U1"",""U25"",""U20"",""P21"",""P16"",""P27"",""P7"",""U15"",""U18"",""P4"",""U3"",""U2"",""P10"",""P29"",""P9"",""P13"",""P28"",""U19"",""P26"",""P6"",""U11"",""P5"",""P30"",""P17"",""U14"",""U8"",""U22""]","5","5","0","0","0","0","[{""page_index"":0,""viewing_time"":16521}]","16522","","","","","","","","","","","","","","","","","","","","","","","","","","","","","","","","","",""
"","","","","","html-button-response","5","2.0.0","56172","70","1","2026-06-08 14:07:30","segmentation_norming_randomized_order_maxrun_attention_v4","75.159.35.253","Mozilla/5.0 (Macintosh; Intel Mac OS X 10_15_7) AppleWebKit/537.36 (KHTML, like Gecko) Chrome/148.0.0.0 Safari/537.36","Macintosh","Chrome","148.0.0.0","OS X","10_15_7","https://uencdihehs.cognition.run/?PROLIFIC_PID=69ebf7ef9b1f438ecd629727&STUDY_ID=6a230fc25d128c9d1b56061a&STUDY_ID=6a230fc25d128c9d1b56061a&SESSION_ID=6a26cc9232399d330febc0da?PROLIFIC_PID=69ebf7ef9b1f438ecd629727&SESSION_ID=6a26cc9232399d330febc0da?","en-US,en;q=0.9","69ebf7ef9b1f438ecd629727","6a230fc25d128c9d1b56061a","6a26cc9232399d330febc0da?","69ebf7ef9b1f438ecd629727","6a230fc25d128c9d1b56061a","6a26cc9232399d330febc0da?","30","[24,23,12,1,25,20,21,16,27,7,15,18,4,3,2,10,29,9,13,28,19,26,6,11,5,30,17,14,8,22]","[""P24"",""P23"",""U12"",""P1"",""P25"",""P20"",""U21"",""U16"",""U27"",""U7"",""P15"",""P18"",""U4"",""P3"",""P2"",""U10"",""U29"",""U9"",""U13"",""U28"",""P19"",""U26"",""U6"",""P11"",""U5"",""U30"",""U17"",""P14"",""P8"",""P22""]","[""U24"",""U23"",""P12"",""U1"",""U25"",""U20"",""P21"",""P16"",""P27"",""P7"",""U15"",""U18"",""P4"",""U3"",""U2"",""P10"",""P29"",""P9"",""P13"",""P28"",""U19"",""P26"",""P6"",""U11"",""P5"",""P30"",""P17"",""U14"",""U8"",""U22""]","5","5","0","0","0","0","","8210","Please pay attention when watching videos and marking boundaries.<br><br>There are several hidden attention criteria to make sure you watch the videos carefully.<br><br>If you fail these hidden criteria more than the allowed number of times, you may be asked to exit the experiment.","0","","","","","","","","","","","","","","","","","","","","","","","","","","","","","","","",""
"","","","","","survey-multi-choice","6","2.0.0","84223","70","1","2026-06-08 14:07:30","segmentation_norming_randomized_order_maxrun_attention_v4","75.159.35.253","Mozilla/5.0 (Macintosh; Intel Mac OS X 10_15_7) AppleWebKit/537.36 (KHTML, like Gecko) Chrome/148.0.0.0 Safari/537.36","Macintosh","Chrome","148.0.0.0","OS X","10_15_7","https://uencdihehs.cognition.run/?PROLIFIC_PID=69ebf7ef9b1f438ecd629727&STUDY_ID=6a230fc25d128c9d1b56061a&STUDY_ID=6a230fc25d128c9d1b56061a&SESSION_ID=6a26cc9232399d330febc0da?PROLIFIC_PID=69ebf7ef9b1f438ecd629727&SESSION_ID=6a26cc9232399d330febc0da?","en-US,en;q=0.9","69ebf7ef9b1f438ecd629727","6a230fc25d128c9d1b56061a","6a26cc9232399d330febc0da?","69ebf7ef9b1f438ecd629727","6a230fc25d128c9d1b56061a","6a26cc9232399d330febc0da?","30","[24,23,12,1,25,20,21,16,27,7,15,18,4,3,2,10,29,9,13,28,19,26,6,11,5,30,17,14,8,22]","[""P24"",""P23"",""U12"",""P1"",""P25"",""P20"",""U21"",""U16"",""U27"",""U7"",""P15"",""P18"",""U4"",""P3"",""P2"",""U10"",""U29"",""U9"",""U13"",""U28"",""P19"",""U26"",""U6"",""P11"",""U5"",""U30"",""U17"",""P14"",""P8"",""P22""]","[""U24"",""U23"",""P12"",""U1"",""U25"",""U20"",""P21"",""P16"",""P27"",""P7"",""U15"",""U18"",""P4"",""U3"",""U2"",""P10"",""P29"",""P9"",""P13"",""P28"",""U19"",""P26"",""P6"",""U11"",""P5"",""P30"",""P17"",""U14"",""U8"",""U22""]","5","5","0","0","0","0","","28047","","{""spacebar_question"":""All of the above answers are wrong"",""attention_question"":""Press space bar to segment the video""}","comprehension_check","[0,1]","All of the above answers are wrong","Press space bar to segment the video","false","true","false","","","","","","","","","","","","","","","","","","","","","","","","",""
"","","","","","html-button-response","7","2.0.0","87718","70","1","2026-06-08 14:07:30","segmentation_norming_randomized_order_maxrun_attention_v4","75.159.35.253","Mozilla/5.0 (Macintosh; Intel Mac OS X 10_15_7) AppleWebKit/537.36 (KHTML, like Gecko) Chrome/148.0.0.0 Safari/537.36","Macintosh","Chrome","148.0.0.0","OS X","10_15_7","https://uencdihehs.cognition.run/?PROLIFIC_PID=69ebf7ef9b1f438ecd629727&STUDY_ID=6a230fc25d128c9d1b56061a&STUDY_ID=6a230fc25d128c9d1b56061a&SESSION_ID=6a26cc9232399d330febc0da?PROLIFIC_PID=69ebf7ef9b1f438ecd629727&SESSION_ID=6a26cc9232399d330febc0da?","en-US,en;q=0.9","69ebf7ef9b1f438ecd629727","6a230fc25d128c9d1b56061a","6a26cc9232399d330febc0da?","69ebf7ef9b1f438ecd629727","6a230fc25d128c9d1b56061a","6a26cc9232399d330febc0da?","30","[24,23,12,1,25,20,21,16,27,7,15,18,4,3,2,10,29,9,13,28,19,26,6,11,5,30,17,14,8,22]","[""P24"",""P23"",""U12"",""P1"",""P25"",""P20"",""U21"",""U16"",""U27"",""U7"",""P15"",""P18"",""U4"",""P3"",""P2"",""U10"",""U29"",""U9"",""U13"",""U28"",""P19"",""U26"",""U6"",""P11"",""U5"",""U30"",""U17"",""P14"",""P8"",""P22""]","[""U24"",""U23"",""P12"",""U1"",""U25"",""U20"",""P21"",""P16"",""P27"",""P7"",""U15"",""U18"",""P4"",""U3"",""U2"",""P10"",""P29"",""P9"",""P13"",""P28"",""U19"",""P26"",""P6"",""U11"",""P5"",""P30"",""P17"",""U14"",""U8"",""U22""]","5","5","0","0","0","0","","3493","You answered some questions incorrectly.<br><br>Please read the instructions again before continuing.","0","","","","","","","","","","","","","","","","","","","","","","","","","","","","","","","",""
"","","","","","instructions","8","2.0.0","103258","70","1","2026-06-08 14:07:30","segmentation_norming_randomized_order_maxrun_attention_v4","75.159.35.253","Mozilla/5.0 (Macintosh; Intel Mac OS X 10_15_7) AppleWebKit/537.36 (KHTML, like Gecko) Chrome/148.0.0.0 Safari/537.36","Macintosh","Chrome","148.0.0.0","OS X","10_15_7","https://uencdihehs.cognition.run/?PROLIFIC_PID=69ebf7ef9b1f438ecd629727&STUDY_ID=6a230fc25d128c9d1b56061a&STUDY_ID=6a230fc25d128c9d1b56061a&SESSION_ID=6a26cc9232399d330febc0da?PROLIFIC_PID=69ebf7ef9b1f438ecd629727&SESSION_ID=6a26cc9232399d330febc0da?","en-US,en;q=0.9","69ebf7ef9b1f438ecd629727","6a230fc25d128c9d1b56061a","6a26cc9232399d330febc0da?","69ebf7ef9b1f438ecd629727","6a230fc25d128c9d1b56061a","6a26cc9232399d330febc0da?","30","[24,23,12,1,25,20,21,16,27,7,15,18,4,3,2,10,29,9,13,28,19,26,6,11,5,30,17,14,8,22]","[""P24"",""P23"",""U12"",""P1"",""P25"",""P20"",""U21"",""U16"",""U27"",""U7"",""P15"",""P18"",""U4"",""P3"",""P2"",""U10"",""U29"",""U9"",""U13"",""U28"",""P19"",""U26"",""U6"",""P11"",""U5"",""U30"",""U17"",""P14"",""P8"",""P22""]","[""U24"",""U23"",""P12"",""U1"",""U25"",""U20"",""P21"",""P16"",""P27"",""P7"",""U15"",""U18"",""P4"",""U3"",""U2"",""P10"",""P29"",""P9"",""P13"",""P28"",""U19"",""P26"",""P6"",""U11"",""P5"",""P30"",""P17"",""U14"",""U8"",""U22""]","5","5","0","0","0","0","[{""page_index"":0,""viewing_time"":15538}]","15538","","","","","","","","","","","","","","","","","","","","","","","","","","","","","","","","","",""
"","","","","","html-button-response","9","2.0.0","106320","70","1","2026-06-08 14:07:30","segmentation_norming_randomized_order_maxrun_attention_v4","75.159.35.253","Mozilla/5.0 (Macintosh; Intel Mac OS X 10_15_7) AppleWebKit/537.36 (KHTML, like Gecko) Chrome/148.0.0.0 Safari/537.36","Macintosh","Chrome","148.0.0.0","OS X","10_15_7","https://uencdihehs.cognition.run/?PROLIFIC_PID=69ebf7ef9b1f438ecd629727&STUDY_ID=6a230fc25d128c9d1b56061a&STUDY_ID=6a230fc25d128c9d1b56061a&SESSION_ID=6a26cc9232399d330febc0da?PROLIFIC_PID=69ebf7ef9b1f438ecd629727&SESSION_ID=6a26cc9232399d330febc0da?","en-US,en;q=0.9","69ebf7ef9b1f438ecd629727","6a230fc25d128c9d1b56061a","6a26cc9232399d330febc0da?","69ebf7ef9b1f438ecd629727","6a230fc25d128c9d1b56061a","6a26cc9232399d330febc0da?","30","[24,23,12,1,25,20,21,16,27,7,15,18,4,3,2,10,29,9,13,28,19,26,6,11,5,30,17,14,8,22]","[""P24"",""P23"",""U12"",""P1"",""P25"",""P20"",""U21"",""U16"",""U27"",""U7"",""P15"",""P18"",""U4"",""P3"",""P2"",""U10"",""U29"",""U9"",""U13"",""U28"",""P19"",""U26"",""U6"",""P11"",""U5"",""U30"",""U17"",""P14"",""P8"",""P22""]","[""U24"",""U23"",""P12"",""U1"",""U25"",""U20"",""P21"",""P16"",""P27"",""P7"",""U15"",""U18"",""P4"",""U3"",""U2"",""P10"",""P29"",""P9"",""P13"",""P28"",""U19"",""P26"",""P6"",""U11"",""P5"",""P30"",""P17"",""U14"",""U8"",""U22""]","5","5","0","0","0","0","","3060","Please pay attention when watching videos and marking boundaries.<br><br>There are several hidden attention criteria to make sure you watch the videos carefully.<br><br>If you fail these hidden criteria more than the allowed number of times, you may be asked to exit the experiment.","0","","","","","","","","","","","","","","","","","","","","","","","","","","","","","","","",""
"","","","","","survey-multi-choice","10","2.0.0","114856","70","1","2026-06-08 14:07:30","segmentation_norming_randomized_order_maxrun_attention_v4","75.159.35.253","Mozilla/5.0 (Macintosh; Intel Mac OS X 10_15_7) AppleWebKit/537.36 (KHTML, like Gecko) Chrome/148.0.0.0 Safari/537.36","Macintosh","Chrome","148.0.0.0","OS X","10_15_7","https://uencdihehs.cognition.run/?PROLIFIC_PID=69ebf7ef9b1f438ecd629727&STUDY_ID=6a230fc25d128c9d1b56061a&STUDY_ID=6a230fc25d128c9d1b56061a&SESSION_ID=6a26cc9232399d330febc0da?PROLIFIC_PID=69ebf7ef9b1f438ecd629727&SESSION_ID=6a26cc9232399d330febc0da?","en-US,en;q=0.9","69ebf7ef9b1f438ecd629727","6a230fc25d128c9d1b56061a","6a26cc9232399d330febc0da?","69ebf7ef9b1f438ecd629727","6a230fc25d128c9d1b56061a","6a26cc9232399d330febc0da?","30","[24,23,12,1,25,20,21,16,27,7,15,18,4,3,2,10,29,9,13,28,19,26,6,11,5,30,17,14,8,22]","[""P24"",""P23"",""U12"",""P1"",""P25"",""P20"",""U21"",""U16"",""U27"",""U7"",""P15"",""P18"",""U4"",""P3"",""P2"",""U10"",""U29"",""U9"",""U13"",""U28"",""P19"",""U26"",""U6"",""P11"",""U5"",""U30"",""U17"",""P14"",""P8"",""P22""]","[""U24"",""U23"",""P12"",""U1"",""U25"",""U20"",""P21"",""P16"",""P27"",""P7"",""U15"",""U18"",""P4"",""U3"",""U2"",""P10"",""P29"",""P9"",""P13"",""P28"",""U19"",""P26"",""P6"",""U11"",""P5"",""P30"",""P17"",""U14"",""U8"",""U22""]","5","5","0","0","0","0","","8533","","{""spacebar_question"":""Between the smallest meaningful events or actions"",""attention_question"":""Press space bar to segment the video""}","comprehension_check","[0,1]","Between the smallest meaningful events or actions","Press space bar to segment the video","true","true","true","","","","","","","","","","","","","","","","","","","","","","","","",""
"","","","","","html-button-response","12","2.0.0","173016","70","1","2026-06-08 14:07:30","segmentation_norming_randomized_order_maxrun_attention_v4","75.159.35.253","Mozilla/5.0 (Macintosh; Intel Mac OS X 10_15_7) AppleWebKit/537.36 (KHTML, like Gecko) Chrome/148.0.0.0 Safari/537.36","Macintosh","Chrome","148.0.0.0","OS X","10_15_7","https://uencdihehs.cognition.run/?PROLIFIC_PID=69ebf7ef9b1f438ecd629727&STUDY_ID=6a230fc25d128c9d1b56061a&STUDY_ID=6a230fc25d128c9d1b56061a&SESSION_ID=6a26cc9232399d330febc0da?PROLIFIC_PID=69ebf7ef9b1f438ecd629727&SESSION_ID=6a26cc9232399d330febc0da?","en-US,en;q=0.9","69ebf7ef9b1f438ecd629727","6a230fc25d128c9d1b56061a","6a26cc9232399d330febc0da?","69ebf7ef9b1f438ecd629727","6a230fc25d128c9d1b56061a","6a26cc9232399d330febc0da?","30","[24,23,12,1,25,20,21,16,27,7,15,18,4,3,2,10,29,9,13,28,19,26,6,11,5,30,17,14,8,22]","[""P24"",""P23"",""U12"",""P1"",""P25"",""P20"",""U21"",""U16"",""U27"",""U7"",""P15"",""P18"",""U4"",""P3"",""P2"",""U10"",""U29"",""U9"",""U13"",""U28"",""P19"",""U26"",""U6"",""P11"",""U5"",""U30"",""U17"",""P14"",""P8"",""P22""]","[""U24"",""U23"",""P12"",""U1"",""U25"",""U20"",""P21"",""P16"",""P27"",""P7"",""U15"",""U18"",""P4"",""U3"",""U2"",""P10"",""P29"",""P9"",""P13"",""P28"",""U19"",""P26"",""P6"",""U11"",""P5"",""P30"",""P17"",""U14"",""U8"",""U22""]","5","5","0","0","0","0","","58141","You have learned the instructions for the task! Here is a demo trial.<br><br>Like what you will do in the main experiment,<br><br> you will watch a movie clip and at the same time mark off the activity in the movie into the <strong>smallest meaningful units</strong> that seem natural and meaningful to you.<br><br>Remember, tap the <strong>SPACE BAR</strong> to mark off a boundary between two <strong>smallest meaningful units</strong> of activity.<br><br>A green bar will appear at the bottom of the screen when you press the button.<br><br>","0","","","","","","","","","","","","","","","","","","","","","","","","","","","","","","","",""
"","","","","","video-keyboard-response","13","2.0.0","189402","70","1","2026-06-08 14:07:30","segmentation_norming_randomized_order_maxrun_attention_v4","75.159.35.253","Mozilla/5.0 (Macintosh; Intel Mac OS X 10_15_7) AppleWebKit/537.36 (KHTML, like Gecko) Chrome/148.0.0.0 Safari/537.36","Macintosh","Chrome","148.0.0.0","OS X","10_15_7","https://uencdihehs.cognition.run/?PROLIFIC_PID=69ebf7ef9b1f438ecd629727&STUDY_ID=6a230fc25d128c9d1b56061a&STUDY_ID=6a230fc25d128c9d1b56061a&SESSION_ID=6a26cc9232399d330febc0da?PROLIFIC_PID=69ebf7ef9b1f438ecd629727&SESSION_ID=6a26cc9232399d330febc0da?","en-US,en;q=0.9","69ebf7ef9b1f438ecd629727","6a230fc25d128c9d1b56061a","6a26cc9232399d330febc0da?","69ebf7ef9b1f438ecd629727","6a230fc25d128c9d1b56061a","6a26cc9232399d330febc0da?","30","[24,23,12,1,25,20,21,16,27,7,15,18,4,3,2,10,29,9,13,28,19,26,6,11,5,30,17,14,8,22]","[""P24"",""P23"",""U12"",""P1"",""P25"",""P20"",""U21"",""U16"",""U27"",""U7"",""P15"",""P18"",""U4"",""P3"",""P2"",""U10"",""U29"",""U9"",""U13"",""U28"",""P19"",""U26"",""U6"",""P11"",""U5"",""U30"",""U17"",""P14"",""P8"",""P22""]","[""U24"",""U23"",""P12"",""U1"",""U25"",""U20"",""P21"",""P16"",""P27"",""P7"",""U15"",""U18"",""P4"",""U3"",""U2"",""P10"",""P29"",""P9"",""P13"",""P28"",""U19"",""P26"",""P6"",""U11"",""P5"",""P30"",""P17"",""U14"",""U8"",""U22""]","5","5","0","0","0","0","","null","[""library_v1.mp4""]","null","demo_video","","","","","","","1","demo1","library_v1.mp4","library","Demo","[]","0","","","","","","","","","","","","","","","","","",""
"","","","","","call-function","14","2.0.0","189403","70","1","2026-06-08 14:07:30","segmentation_norming_randomized_order_maxrun_attention_v4","75.159.35.253","Mozilla/5.0 (Macintosh; Intel Mac OS X 10_15_7) AppleWebKit/537.36 (KHTML, like Gecko) Chrome/148.0.0.0 Safari/537.36","Macintosh","Chrome","148.0.0.0","OS X","10_15_7","https://uencdihehs.cognition.run/?PROLIFIC_PID=69ebf7ef9b1f438ecd629727&STUDY_ID=6a230fc25d128c9d1b56061a&STUDY_ID=6a230fc25d128c9d1b56061a&SESSION_ID=6a26cc9232399d330febc0da?PROLIFIC_PID=69ebf7ef9b1f438ecd629727&SESSION_ID=6a26cc9232399d330febc0da?","en-US,en;q=0.9","69ebf7ef9b1f438ecd629727","6a230fc25d128c9d1b56061a","6a26cc9232399d330febc0da?","69ebf7ef9b1f438ecd629727","6a230fc25d128c9d1b56061a","6a26cc9232399d330febc0da?","30","[24,23,12,1,25,20,21,16,27,7,15,18,4,3,2,10,29,9,13,28,19,26,6,11,5,30,17,14,8,22]","[""P24"",""P23"",""U12"",""P1"",""P25"",""P20"",""U21"",""U16"",""U27"",""U7"",""P15"",""P18"",""U4"",""P3"",""P2"",""U10"",""U29"",""U9"",""U13"",""U28"",""P19"",""U26"",""U6"",""P11"",""U5"",""U30"",""U17"",""P14"",""P8"",""P22""]","[""U24"",""U23"",""P12"",""U1"",""U25"",""U20"",""P21"",""P16"",""P27"",""P7"",""U15"",""U18"",""P4"",""U3"",""U2"",""P10"",""P29"",""P9"",""P13"",""P28"",""U19"",""P26"",""P6"",""U11"",""P5"",""P30"",""P17"",""U14"",""U8"",""U22""]","5","5","0","0","0","0","","","","","","","","","","","","","","","","","","","","","","","","","","","","","","","","","","","",""
"","","","","","html-button-response","15","2.0.0","202568","70","1","2026-06-08 14:07:30","segmentation_norming_randomized_order_maxrun_attention_v4","75.159.35.253","Mozilla/5.0 (Macintosh; Intel Mac OS X 10_15_7) AppleWebKit/537.36 (KHTML, like Gecko) Chrome/148.0.0.0 Safari/537.36","Macintosh","Chrome","148.0.0.0","OS X","10_15_7","https://uencdihehs.cognition.run/?PROLIFIC_PID=69ebf7ef9b1f438ecd629727&STUDY_ID=6a230fc25d128c9d1b56061a&STUDY_ID=6a230fc25d128c9d1b56061a&SESSION_ID=6a26cc9232399d330febc0da?PROLIFIC_PID=69ebf7ef9b1f438ecd629727&SESSION_ID=6a26cc9232399d330febc0da?","en-US,en;q=0.9","69ebf7ef9b1f438ecd629727","6a230fc25d128c9d1b56061a","6a26cc9232399d330febc0da?","69ebf7ef9b1f438ecd629727","6a230fc25d128c9d1b56061a","6a26cc9232399d330febc0da?","30","[24,23,12,1,25,20,21,16,27,7,15,18,4,3,2,10,29,9,13,28,19,26,6,11,5,30,17,14,8,22]","[""P24"",""P23"",""U12"",""P1"",""P25"",""P20"",""U21"",""U16"",""U27"",""U7"",""P15"",""P18"",""U4"",""P3"",""P2"",""U10"",""U29"",""U9"",""U13"",""U28"",""P19"",""U26"",""U6"",""P11"",""U5"",""U30"",""U17"",""P14"",""P8"",""P22""]","[""U24"",""U23"",""P12"",""U1"",""U25"",""U20"",""P21"",""P16"",""P27"",""P7"",""U15"",""U18"",""P4"",""U3"",""U2"",""P10"",""P29"",""P9"",""P13"",""P28"",""U19"",""P26"",""P6"",""U11"",""P5"",""P30"",""P17"",""U14"",""U8"",""U22""]","5","5","0","0","0","0","","13164","Usually people tend to press the button more times than you did.<br><br>As a reminder, press the <strong>SPACE BAR</strong> whenever one <strong>smallest meaningful unit</strong> of activity ends and another begins.<br><br>Let's try another demo trial.<br><br>","0","demo_feedback","","","","","","","","","","","","","","","","","","","","","","","","","","","","","","",""
"","","","","","video-keyboard-response","16","2.0.0","238107","70","1","2026-06-08 14:07:30","segmentation_norming_randomized_order_maxrun_attention_v4","75.159.35.253","Mozilla/5.0 (Macintosh; Intel Mac OS X 10_15_7) AppleWebKit/537.36 (KHTML, like Gecko) Chrome/148.0.0.0 Safari/537.36","Macintosh","Chrome","148.0.0.0","OS X","10_15_7","https://uencdihehs.cognition.run/?PROLIFIC_PID=69ebf7ef9b1f438ecd629727&STUDY_ID=6a230fc25d128c9d1b56061a&STUDY_ID=6a230fc25d128c9d1b56061a&SESSION_ID=6a26cc9232399d330febc0da?PROLIFIC_PID=69ebf7ef9b1f438ecd629727&SESSION_ID=6a26cc9232399d330febc0da?","en-US,en;q=0.9","69ebf7ef9b1f438ecd629727","6a230fc25d128c9d1b56061a","6a26cc9232399d330febc0da?","69ebf7ef9b1f438ecd629727","6a230fc25d128c9d1b56061a","6a26cc9232399d330febc0da?","30","[24,23,12,1,25,20,21,16,27,7,15,18,4,3,2,10,29,9,13,28,19,26,6,11,5,30,17,14,8,22]","[""P24"",""P23"",""U12"",""P1"",""P25"",""P20"",""U21"",""U16"",""U27"",""U7"",""P15"",""P18"",""U4"",""P3"",""P2"",""U10"",""U29"",""U9"",""U13"",""U28"",""P19"",""U26"",""U6"",""P11"",""U5"",""U30"",""U17"",""P14"",""P8"",""P22""]","[""U24"",""U23"",""P12"",""U1"",""U25"",""U20"",""P21"",""P16"",""P27"",""P7"",""U15"",""U18"",""P4"",""U3"",""U2"",""P10"",""P29"",""P9"",""P13"",""P28"",""U19"",""P26"",""P6"",""U11"",""P5"",""P30"",""P17"",""U14"",""U8"",""U22""]","5","5","0","0","0","0","","null","[""garden_v1.mp4""]","null","demo_video","","","","","","","2","demo2","garden_v1.mp4","garden","Demo","[2.404401,5.762432,13.143256,15.438166,20.028419,22.742883,25.025674,30.648658]","8","","","","","","","","","","","","","","","","","",""
"","","","","","call-function","17","2.0.0","238108","70","1","2026-06-08 14:07:30","segmentation_norming_randomized_order_maxrun_attention_v4","75.159.35.253","Mozilla/5.0 (Macintosh; Intel Mac OS X 10_15_7) AppleWebKit/537.36 (KHTML, like Gecko) Chrome/148.0.0.0 Safari/537.36","Macintosh","Chrome","148.0.0.0","OS X","10_15_7","https://uencdihehs.cognition.run/?PROLIFIC_PID=69ebf7ef9b1f438ecd629727&STUDY_ID=6a230fc25d128c9d1b56061a&STUDY_ID=6a230fc25d128c9d1b56061a&SESSION_ID=6a26cc9232399d330febc0da?PROLIFIC_PID=69ebf7ef9b1f438ecd629727&SESSION_ID=6a26cc9232399d330febc0da?","en-US,en;q=0.9","69ebf7ef9b1f438ecd629727","6a230fc25d128c9d1b56061a","6a26cc9232399d330febc0da?","69ebf7ef9b1f438ecd629727","6a230fc25d128c9d1b56061a","6a26cc9232399d330febc0da?","30","[24,23,12,1,25,20,21,16,27,7,15,18,4,3,2,10,29,9,13,28,19,26,6,11,5,30,17,14,8,22]","[""P24"",""P23"",""U12"",""P1"",""P25"",""P20"",""U21"",""U16"",""U27"",""U7"",""P15"",""P18"",""U4"",""P3"",""P2"",""U10"",""U29"",""U9"",""U13"",""U28"",""P19"",""U26"",""U6"",""P11"",""U5"",""U30"",""U17"",""P14"",""P8"",""P22""]","[""U24"",""U23"",""P12"",""U1"",""U25"",""U20"",""P21"",""P16"",""P27"",""P7"",""U15"",""U18"",""P4"",""U3"",""U2"",""P10"",""P29"",""P9"",""P13"",""P28"",""U19"",""P26"",""P6"",""U11"",""P5"",""P30"",""P17"",""U14"",""U8"",""U22""]","5","5","0","0","0","0","","","","","","","","","","","","","","","","","","","","","","","","","","","","","","","","","","","",""
"","","","","","html-button-response","18","2.0.0","334186","70","1","2026-06-08 14:07:30","segmentation_norming_randomized_order_maxrun_attention_v4","75.159.35.253","Mozilla/5.0 (Macintosh; Intel Mac OS X 10_15_7) AppleWebKit/537.36 (KHTML, like Gecko) Chrome/148.0.0.0 Safari/537.36","Macintosh","Chrome","148.0.0.0","OS X","10_15_7","https://uencdihehs.cognition.run/?PROLIFIC_PID=69ebf7ef9b1f438ecd629727&STUDY_ID=6a230fc25d128c9d1b56061a&STUDY_ID=6a230fc25d128c9d1b56061a&SESSION_ID=6a26cc9232399d330febc0da?PROLIFIC_PID=69ebf7ef9b1f438ecd629727&SESSION_ID=6a26cc9232399d330febc0da?","en-US,en;q=0.9","69ebf7ef9b1f438ecd629727","6a230fc25d128c9d1b56061a","6a26cc9232399d330febc0da?","69ebf7ef9b1f438ecd629727","6a230fc25d128c9d1b56061a","6a26cc9232399d330febc0da?","30","[24,23,12,1,25,20,21,16,27,7,15,18,4,3,2,10,29,9,13,28,19,26,6,11,5,30,17,14,8,22]","[""P24"",""P23"",""U12"",""P1"",""P25"",""P20"",""U21"",""U16"",""U27"",""U7"",""P15"",""P18"",""U4"",""P3"",""P2"",""U10"",""U29"",""U9"",""U13"",""U28"",""P19"",""U26"",""U6"",""P11"",""U5"",""U30"",""U17"",""P14"",""P8"",""P22""]","[""U24"",""U23"",""P12"",""U1"",""U25"",""U20"",""P21"",""P16"",""P27"",""P7"",""U15"",""U18"",""P4"",""U3"",""U2"",""P10"",""P29"",""P9"",""P13"",""P28"",""U19"",""P26"",""P6"",""U11"",""P5"",""P30"",""P17"",""U14"",""U8"",""U22""]","5","5","0","0","0","0","","96075","Usually people tend to press the button more times than you did.<br><br>As a reminder, press the <strong>SPACE BAR</strong> whenever one <strong>smallest meaningful unit</strong> of activity ends and another begins.<br><br>Let's try another demo trial.<br><br>","0","demo_feedback","","","","","","","","","","","","","","","","","","","","","","","","","","","","","","",""
"","","","","","video-keyboard-response","19","2.0.0","358639","70","1","2026-06-08 14:07:30","segmentation_norming_randomized_order_maxrun_attention_v4","75.159.35.253","Mozilla/5.0 (Macintosh; Intel Mac OS X 10_15_7) AppleWebKit/537.36 (KHTML, like Gecko) Chrome/148.0.0.0 Safari/537.36","Macintosh","Chrome","148.0.0.0","OS X","10_15_7","https://uencdihehs.cognition.run/?PROLIFIC_PID=69ebf7ef9b1f438ecd629727&STUDY_ID=6a230fc25d128c9d1b56061a&STUDY_ID=6a230fc25d128c9d1b56061a&SESSION_ID=6a26cc9232399d330febc0da?PROLIFIC_PID=69ebf7ef9b1f438ecd629727&SESSION_ID=6a26cc9232399d330febc0da?","en-US,en;q=0.9","69ebf7ef9b1f438ecd629727","6a230fc25d128c9d1b56061a","6a26cc9232399d330febc0da?","69ebf7ef9b1f438ecd629727","6a230fc25d128c9d1b56061a","6a26cc9232399d330febc0da?","30","[24,23,12,1,25,20,21,16,27,7,15,18,4,3,2,10,29,9,13,28,19,26,6,11,5,30,17,14,8,22]","[""P24"",""P23"",""U12"",""P1"",""P25"",""P20"",""U21"",""U16"",""U27"",""U7"",""P15"",""P18"",""U4"",""P3"",""P2"",""U10"",""U29"",""U9"",""U13"",""U28"",""P19"",""U26"",""U6"",""P11"",""U5"",""U30"",""U17"",""P14"",""P8"",""P22""]","[""U24"",""U23"",""P12"",""U1"",""U25"",""U20"",""P21"",""P16"",""P27"",""P7"",""U15"",""U18"",""P4"",""U3"",""U2"",""P10"",""P29"",""P9"",""P13"",""P28"",""U19"",""P26"",""P6"",""U11"",""P5"",""P30"",""P17"",""U14"",""U8"",""U22""]","5","5","0","0","0","0","","null","[""vending_v1.mp4""]","null","demo_video","","","","","","","3","demo3","vending_v1.mp4","vending","Demo","[35.413313,1.163647,35.413313,3.068951,35.413313,3.94043,35.413313,5.095768,35.413313,6.430513,35.413313,6.789115,35.413313,8.4406,35.413313,9.145208,35.413313,10.452575,35.413313,12.520883,35.413313,14.052168,35.413313,15.774221,35.413313,18.401193,35.413313,20.004555,35.413313,21.821653,35.413313,22.931301]","32","","","","","","","","","","","","","","","","","",""
"","","","","","call-function","20","2.0.0","358640","70","1","2026-06-08 14:07:30","segmentation_norming_randomized_order_maxrun_attention_v4","75.159.35.253","Mozilla/5.0 (Macintosh; Intel Mac OS X 10_15_7) AppleWebKit/537.36 (KHTML, like Gecko) Chrome/148.0.0.0 Safari/537.36","Macintosh","Chrome","148.0.0.0","OS X","10_15_7","https://uencdihehs.cognition.run/?PROLIFIC_PID=69ebf7ef9b1f438ecd629727&STUDY_ID=6a230fc25d128c9d1b56061a&STUDY_ID=6a230fc25d128c9d1b56061a&SESSION_ID=6a26cc9232399d330febc0da?PROLIFIC_PID=69ebf7ef9b1f438ecd629727&SESSION_ID=6a26cc9232399d330febc0da?","en-US,en;q=0.9","69ebf7ef9b1f438ecd629727","6a230fc25d128c9d1b56061a","6a26cc9232399d330febc0da?","69ebf7ef9b1f438ecd629727","6a230fc25d128c9d1b56061a","6a26cc9232399d330febc0da?","30","[24,23,12,1,25,20,21,16,27,7,15,18,4,3,2,10,29,9,13,28,19,26,6,11,5,30,17,14,8,22]","[""P24"",""P23"",""U12"",""P1"",""P25"",""P20"",""U21"",""U16"",""U27"",""U7"",""P15"",""P18"",""U4"",""P3"",""P2"",""U10"",""U29"",""U9"",""U13"",""U28"",""P19"",""U26"",""U6"",""P11"",""U5"",""U30"",""U17"",""P14"",""P8"",""P22""]","[""U24"",""U23"",""P12"",""U1"",""U25"",""U20"",""P21"",""P16"",""P27"",""P7"",""U15"",""U18"",""P4"",""U3"",""U2"",""P10"",""P29"",""P9"",""P13"",""P28"",""U19"",""P26"",""P6"",""U11"",""P5"",""P30"",""P17"",""U14"",""U8"",""U22""]","5","5","0","0","0","0","","","","","","","","","","","","","","","","","","","","","","","","","","","","","","","","","","","",""
"","","","","","html-button-response","21","2.0.0","373141","70","1","2026-06-08 14:07:30","segmentation_norming_randomized_order_maxrun_attention_v4","75.159.35.253","Mozilla/5.0 (Macintosh; Intel Mac OS X 10_15_7) AppleWebKit/537.36 (KHTML, like Gecko) Chrome/148.0.0.0 Safari/537.36","Macintosh","Chrome","148.0.0.0","OS X","10_15_7","https://uencdihehs.cognition.run/?PROLIFIC_PID=69ebf7ef9b1f438ecd629727&STUDY_ID=6a230fc25d128c9d1b56061a&STUDY_ID=6a230fc25d128c9d1b56061a&SESSION_ID=6a26cc9232399d330febc0da?PROLIFIC_PID=69ebf7ef9b1f438ecd629727&SESSION_ID=6a26cc9232399d330febc0da?","en-US,en;q=0.9","69ebf7ef9b1f438ecd629727","6a230fc25d128c9d1b56061a","6a26cc9232399d330febc0da?","69ebf7ef9b1f438ecd629727","6a230fc25d128c9d1b56061a","6a26cc9232399d330febc0da?","30","[24,23,12,1,25,20,21,16,27,7,15,18,4,3,2,10,29,9,13,28,19,26,6,11,5,30,17,14,8,22]","[""P24"",""P23"",""U12"",""P1"",""P25"",""P20"",""U21"",""U16"",""U27"",""U7"",""P15"",""P18"",""U4"",""P3"",""P2"",""U10"",""U29"",""U9"",""U13"",""U28"",""P19"",""U26"",""U6"",""P11"",""U5"",""U30"",""U17"",""P14"",""P8"",""P22""]","[""U24"",""U23"",""P12"",""U1"",""U25"",""U20"",""P21"",""P16"",""P27"",""P7"",""U15"",""U18"",""P4"",""U3"",""U2"",""P10"",""P29"",""P9"",""P13"",""P28"",""U19"",""P26"",""P6"",""U11"",""P5"",""P30"",""P17"",""U14"",""U8"",""U22""]","5","5","0","0","0","0","","14500","Usually people tend to press the button fewer times than you did.<br><br>As a reminder, press the <strong>SPACE BAR</strong> whenever one <strong>smallest meaningful unit</strong> of activity ends and another begins.<br><br>Let's try another demo trial.<br><br>","0","demo_feedback","","","","","","","","","","","","","","","","","","","","","","","","","","","","","","",""
"","","","","","video-keyboard-response","22","2.0.0","416614","70","1","2026-06-08 14:07:30","segmentation_norming_randomized_order_maxrun_attention_v4","75.159.35.253","Mozilla/5.0 (Macintosh; Intel Mac OS X 10_15_7) AppleWebKit/537.36 (KHTML, like Gecko) Chrome/148.0.0.0 Safari/537.36","Macintosh","Chrome","148.0.0.0","OS X","10_15_7","https://uencdihehs.cognition.run/?PROLIFIC_PID=69ebf7ef9b1f438ecd629727&STUDY_ID=6a230fc25d128c9d1b56061a&STUDY_ID=6a230fc25d128c9d1b56061a&SESSION_ID=6a26cc9232399d330febc0da?PROLIFIC_PID=69ebf7ef9b1f438ecd629727&SESSION_ID=6a26cc9232399d330febc0da?","en-US,en;q=0.9","69ebf7ef9b1f438ecd629727","6a230fc25d128c9d1b56061a","6a26cc9232399d330febc0da?","69ebf7ef9b1f438ecd629727","6a230fc25d128c9d1b56061a","6a26cc9232399d330febc0da?","30","[24,23,12,1,25,20,21,16,27,7,15,18,4,3,2,10,29,9,13,28,19,26,6,11,5,30,17,14,8,22]","[""P24"",""P23"",""U12"",""P1"",""P25"",""P20"",""U21"",""U16"",""U27"",""U7"",""P15"",""P18"",""U4"",""P3"",""P2"",""U10"",""U29"",""U9"",""U13"",""U28"",""P19"",""U26"",""U6"",""P11"",""U5"",""U30"",""U17"",""P14"",""P8"",""P22""]","[""U24"",""U23"",""P12"",""U1"",""U25"",""U20"",""P21"",""P16"",""P27"",""P7"",""U15"",""U18"",""P4"",""U3"",""U2"",""P10"",""P29"",""P9"",""P13"",""P28"",""U19"",""P26"",""P6"",""U11"",""P5"",""P30"",""P17"",""U14"",""U8"",""U22""]","5","5","0","0","0","0","","null","[""getting_ready_v1.mp4""]","null","demo_video","","","","","","","4","demo4","getting_ready_v1.mp4","getting_ready","Demo","[35.413313,24.319979,1.446406,35.413313,24.319979,9.532886,35.413313,24.319979,15.878119,35.413313,24.319979,24.248982,35.413313,24.319979,30.726235,35.413313,24.319979,43.000407]","18","","","","","","","","","","","","","","","","","",""
"","","","","","call-function","23","2.0.0","416615","70","1","2026-06-08 14:07:30","segmentation_norming_randomized_order_maxrun_attention_v4","75.159.35.253","Mozilla/5.0 (Macintosh; Intel Mac OS X 10_15_7) AppleWebKit/537.36 (KHTML, like Gecko) Chrome/148.0.0.0 Safari/537.36","Macintosh","Chrome","148.0.0.0","OS X","10_15_7","https://uencdihehs.cognition.run/?PROLIFIC_PID=69ebf7ef9b1f438ecd629727&STUDY_ID=6a230fc25d128c9d1b56061a&STUDY_ID=6a230fc25d128c9d1b56061a&SESSION_ID=6a26cc9232399d330febc0da?PROLIFIC_PID=69ebf7ef9b1f438ecd629727&SESSION_ID=6a26cc9232399d330febc0da?","en-US,en;q=0.9","69ebf7ef9b1f438ecd629727","6a230fc25d128c9d1b56061a","6a26cc9232399d330febc0da?","69ebf7ef9b1f438ecd629727","6a230fc25d128c9d1b56061a","6a26cc9232399d330febc0da?","30","[24,23,12,1,25,20,21,16,27,7,15,18,4,3,2,10,29,9,13,28,19,26,6,11,5,30,17,14,8,22]","[""P24"",""P23"",""U12"",""P1"",""P25"",""P20"",""U21"",""U16"",""U27"",""U7"",""P15"",""P18"",""U4"",""P3"",""P2"",""U10"",""U29"",""U9"",""U13"",""U28"",""P19"",""U26"",""U6"",""P11"",""U5"",""U30"",""U17"",""P14"",""P8"",""P22""]","[""U24"",""U23"",""P12"",""U1"",""U25"",""U20"",""P21"",""P16"",""P27"",""P7"",""U15"",""U18"",""P4"",""U3"",""U2"",""P10"",""P29"",""P9"",""P13"",""P28"",""U19"",""P26"",""P6"",""U11"",""P5"",""P30"",""P17"",""U14"",""U8"",""U22""]","5","5","0","0","0","0","","","","","","","","","","","","","","","","","","","","","","","","","","","","","","","","","","","",""
"","","","","","html-button-response","24","2.0.0","425316","70","1","2026-06-08 14:07:30","segmentation_norming_randomized_order_maxrun_attention_v4","75.159.35.253","Mozilla/5.0 (Macintosh; Intel Mac OS X 10_15_7) AppleWebKit/537.36 (KHTML, like Gecko) Chrome/148.0.0.0 Safari/537.36","Macintosh","Chrome","148.0.0.0","OS X","10_15_7","https://uencdihehs.cognition.run/?PROLIFIC_PID=69ebf7ef9b1f438ecd629727&STUDY_ID=6a230fc25d128c9d1b56061a&STUDY_ID=6a230fc25d128c9d1b56061a&SESSION_ID=6a26cc9232399d330febc0da?PROLIFIC_PID=69ebf7ef9b1f438ecd629727&SESSION_ID=6a26cc9232399d330febc0da?","en-US,en;q=0.9","69ebf7ef9b1f438ecd629727","6a230fc25d128c9d1b56061a","6a26cc9232399d330febc0da?","69ebf7ef9b1f438ecd629727","6a230fc25d128c9d1b56061a","6a26cc9232399d330febc0da?","30","[24,23,12,1,25,20,21,16,27,7,15,18,4,3,2,10,29,9,13,28,19,26,6,11,5,30,17,14,8,22]","[""P24"",""P23"",""U12"",""P1"",""P25"",""P20"",""U21"",""U16"",""U27"",""U7"",""P15"",""P18"",""U4"",""P3"",""P2"",""U10"",""U29"",""U9"",""U13"",""U28"",""P19"",""U26"",""U6"",""P11"",""U5"",""U30"",""U17"",""P14"",""P8"",""P22""]","[""U24"",""U23"",""P12"",""U1"",""U25"",""U20"",""P21"",""P16"",""P27"",""P7"",""U15"",""U18"",""P4"",""U3"",""U2"",""P10"",""P29"",""P9"",""P13"",""P28"",""U19"",""P26"",""P6"",""U11"",""P5"",""P30"",""P17"",""U14"",""U8"",""U22""]","5","5","0","0","0","0","","8700","You have completed all demo trials.<br><br>Now the main experiment starts.<br>For each clip, while watching, remember to press the SPACE BAR whenever one <strong>smallest meaningful unit</strong> of activity ends and another begins.<br><br>","0","demo_feedback","","","","","","","","","","","","","","","","","","","","","","","","","","","","","","",""
"true","false","[]","[]","[]","preload","25","2.0.0","445635","70","1","2026-06-08 14:07:30","segmentation_norming_randomized_order_maxrun_attention_v4","75.159.35.253","Mozilla/5.0 (Macintosh; Intel Mac OS X 10_15_7) AppleWebKit/537.36 (KHTML, like Gecko) Chrome/148.0.0.0 Safari/537.36","Macintosh","Chrome","148.0.0.0","OS X","10_15_7","https://uencdihehs.cognition.run/?PROLIFIC_PID=69ebf7ef9b1f438ecd629727&STUDY_ID=6a230fc25d128c9d1b56061a&STUDY_ID=6a230fc25d128c9d1b56061a&SESSION_ID=6a26cc9232399d330febc0da?PROLIFIC_PID=69ebf7ef9b1f438ecd629727&SESSION_ID=6a26cc9232399d330febc0da?","en-US,en;q=0.9","69ebf7ef9b1f438ecd629727","6a230fc25d128c9d1b56061a","6a26cc9232399d330febc0da?","69ebf7ef9b1f438ecd629727","6a230fc25d128c9d1b56061a","6a26cc9232399d330febc0da?","30","[24,23,12,1,25,20,21,16,27,7,15,18,4,3,2,10,29,9,13,28,19,26,6,11,5,30,17,14,8,22]","[""P24"",""P23"",""U12"",""P1"",""P25"",""P20"",""U21"",""U16"",""U27"",""U7"",""P15"",""P18"",""U4"",""P3"",""P2"",""U10"",""U29"",""U9"",""U13"",""U28"",""P19"",""U26"",""U6"",""P11"",""U5"",""U30"",""U17"",""P14"",""P8"",""P22""]","[""U24"",""U23"",""P12"",""U1"",""U25"",""U20"",""P21"",""P16"",""P27"",""P7"",""U15"",""U18"",""P4"",""U3"",""U2"",""P10"",""P29"",""P9"",""P13"",""P28"",""U19"",""P26"",""P6"",""U11"",""P5"",""P30"",""P17"",""U14"",""U8"",""U22""]","5","5","0","0","0","0","","","","","","","","","","","","","","","","","","","","","","","","","","","","","","","","","","","",""
"","","","","","video-keyboard-response","26","2.0.0","469896","70","1","2026-06-08 14:07:30","segmentation_norming_randomized_order_maxrun_attention_v4","75.159.35.253","Mozilla/5.0 (Macintosh; Intel Mac OS X 10_15_7) AppleWebKit/537.36 (KHTML, like Gecko) Chrome/148.0.0.0 Safari/537.36","Macintosh","Chrome","148.0.0.0","OS X","10_15_7","https://uencdihehs.cognition.run/?PROLIFIC_PID=69ebf7ef9b1f438ecd629727&STUDY_ID=6a230fc25d128c9d1b56061a&STUDY_ID=6a230fc25d128c9d1b56061a&SESSION_ID=6a26cc9232399d330febc0da?PROLIFIC_PID=69ebf7ef9b1f438ecd629727&SESSION_ID=6a26cc9232399d330febc0da?","en-US,en;q=0.9","69ebf7ef9b1f438ecd629727","6a230fc25d128c9d1b56061a","6a26cc9232399d330febc0da?","69ebf7ef9b1f438ecd629727","6a230fc25d128c9d1b56061a","6a26cc9232399d330febc0da?","30","[24,23,12,1,25,20,21,16,27,7,15,18,4,3,2,10,29,9,13,28,19,26,6,11,5,30,17,14,8,22]","[""P24"",""P23"",""U12"",""P1"",""P25"",""P20"",""U21"",""U16"",""U27"",""U7"",""P15"",""P18"",""U4"",""P3"",""P2"",""U10"",""U29"",""U9"",""U13"",""U28"",""P19"",""U26"",""U6"",""P11"",""U5"",""U30"",""U17"",""P14"",""P8"",""P22""]","[""U24"",""U23"",""P12"",""U1"",""U25"",""U20"",""P21"",""P16"",""P27"",""P7"",""U15"",""U18"",""P4"",""U3"",""U2"",""P10"",""P29"",""P9"",""P13"",""P28"",""U19"",""P26"",""P6"",""U11"",""P5"",""P30"",""P17"",""U14"",""U8"",""U22""]","5","5","0","0","0","0","","null","[""skateboard_v1.mp4""]","null","segmentation_video","","","","","","","","","skateboard_v1.mp4","skateboard","Predictable","[0.963365,9.70836,15.109024,20.56969]","4","","P24","24","1","1","5.400663999999999","false","false","false","","false","0","0","false","false","false","false",""
"","","","","","survey-multi-choice","29","2.0.0","476600","70","1","2026-06-08 14:07:30","segmentation_norming_randomized_order_maxrun_attention_v4","75.159.35.253","Mozilla/5.0 (Macintosh; Intel Mac OS X 10_15_7) AppleWebKit/537.36 (KHTML, like Gecko) Chrome/148.0.0.0 Safari/537.36","Macintosh","Chrome","148.0.0.0","OS X","10_15_7","https://uencdihehs.cognition.run/?PROLIFIC_PID=69ebf7ef9b1f438ecd629727&STUDY_ID=6a230fc25d128c9d1b56061a&STUDY_ID=6a230fc25d128c9d1b56061a&SESSION_ID=6a26cc9232399d330febc0da?PROLIFIC_PID=69ebf7ef9b1f438ecd629727&SESSION_ID=6a26cc9232399d330febc0da?","en-US,en;q=0.9","69ebf7ef9b1f438ecd629727","6a230fc25d128c9d1b56061a","6a26cc9232399d330febc0da?","69ebf7ef9b1f438ecd629727","6a230fc25d128c9d1b56061a","6a26cc9232399d330febc0da?","30","[24,23,12,1,25,20,21,16,27,7,15,18,4,3,2,10,29,9,13,28,19,26,6,11,5,30,17,14,8,22]","[""P24"",""P23"",""U12"",""P1"",""P25"",""P20"",""U21"",""U16"",""U27"",""U7"",""P15"",""P18"",""U4"",""P3"",""P2"",""U10"",""U29"",""U9"",""U13"",""U28"",""P19"",""U26"",""U6"",""P11"",""U5"",""U30"",""U17"",""P14"",""P8"",""P22""]","[""U24"",""U23"",""P12"",""U1"",""U25"",""U20"",""P21"",""P16"",""P27"",""P7"",""U15"",""U18"",""P4"",""U3"",""U2"",""P10"",""P29"",""P9"",""P13"",""P28"",""U19"",""P26"",""P6"",""U11"",""P5"",""P30"",""P17"",""U14"",""U8"",""U22""]","5","5","0","0","0","0","","6701","","{""confidence_rating"":""Moderately confident""}","confidence_question","[0]","","","","","","","","","skateboard","Predictable","","","","P24","24","1","1","","","","","","","","","","","","","Moderately confident"
"","","","","","video-keyboard-response","30","2.0.0","488499","70","1","2026-06-08 14:07:30","segmentation_norming_randomized_order_maxrun_attention_v4","75.159.35.253","Mozilla/5.0 (Macintosh; Intel Mac OS X 10_15_7) AppleWebKit/537.36 (KHTML, like Gecko) Chrome/148.0.0.0 Safari/537.36","Macintosh","Chrome","148.0.0.0","OS X","10_15_7","https://uencdihehs.cognition.run/?PROLIFIC_PID=69ebf7ef9b1f438ecd629727&STUDY_ID=6a230fc25d128c9d1b56061a&STUDY_ID=6a230fc25d128c9d1b56061a&SESSION_ID=6a26cc9232399d330febc0da?PROLIFIC_PID=69ebf7ef9b1f438ecd629727&SESSION_ID=6a26cc9232399d330febc0da?","en-US,en;q=0.9","69ebf7ef9b1f438ecd629727","6a230fc25d128c9d1b56061a","6a26cc9232399d330febc0da?","69ebf7ef9b1f438ecd629727","6a230fc25d128c9d1b56061a","6a26cc9232399d330febc0da?","30","[24,23,12,1,25,20,21,16,27,7,15,18,4,3,2,10,29,9,13,28,19,26,6,11,5,30,17,14,8,22]","[""P24"",""P23"",""U12"",""P1"",""P25"",""P20"",""U21"",""U16"",""U27"",""U7"",""P15"",""P18"",""U4"",""P3"",""P2"",""U10"",""U29"",""U9"",""U13"",""U28"",""P19"",""U26"",""U6"",""P11"",""U5"",""U30"",""U17"",""P14"",""P8"",""P22""]","[""U24"",""U23"",""P12"",""U1"",""U25"",""U20"",""P21"",""P16"",""P27"",""P7"",""U15"",""U18"",""P4"",""U3"",""U2"",""P10"",""P29"",""P9"",""P13"",""P28"",""U19"",""P26"",""P6"",""U11"",""P5"",""P30"",""P17"",""U14"",""U8"",""U22""]","5","5","0","0","0","0","","null","[""shopping_v1.mp4""]","null","segmentation_video","","","","","","","","","shopping_v1.mp4","shopping","Predictable","[1.065389,1.338056,5.372478,7.970195]","4","","P23","23","1","2","0.272667","false","false","false","","false","0","0","false","false","false","false",""
"","","","","","survey-multi-choice","33","2.0.0","492400","70","1","2026-06-08 14:07:30","segmentation_norming_randomized_order_maxrun_attention_v4","75.159.35.253","Mozilla/5.0 (Macintosh; Intel Mac OS X 10_15_7) AppleWebKit/537.36 (KHTML, like Gecko) Chrome/148.0.0.0 Safari/537.36","Macintosh","Chrome","148.0.0.0","OS X","10_15_7","https://uencdihehs.cognition.run/?PROLIFIC_PID=69ebf7ef9b1f438ecd629727&STUDY_ID=6a230fc25d128c9d1b56061a&STUDY_ID=6a230fc25d128c9d1b56061a&SESSION_ID=6a26cc9232399d330febc0da?PROLIFIC_PID=69ebf7ef9b1f438ecd629727&SESSION_ID=6a26cc9232399d330febc0da?","en-US,en;q=0.9","69ebf7ef9b1f438ecd629727","6a230fc25d128c9d1b56061a","6a26cc9232399d330febc0da?","69ebf7ef9b1f438ecd629727","6a230fc25d128c9d1b56061a","6a26cc9232399d330febc0da?","30","[24,23,12,1,25,20,21,16,27,7,15,18,4,3,2,10,29,9,13,28,19,26,6,11,5,30,17,14,8,22]","[""P24"",""P23"",""U12"",""P1"",""P25"",""P20"",""U21"",""U16"",""U27"",""U7"",""P15"",""P18"",""U4"",""P3"",""P2"",""U10"",""U29"",""U9"",""U13"",""U28"",""P19"",""U26"",""U6"",""P11"",""U5"",""U30"",""U17"",""P14"",""P8"",""P22""]","[""U24"",""U23"",""P12"",""U1"",""U25"",""U20"",""P21"",""P16"",""P27"",""P7"",""U15"",""U18"",""P4"",""U3"",""U2"",""P10"",""P29"",""P9"",""P13"",""P28"",""U19"",""P26"",""P6"",""U11"",""P5"",""P30"",""P17"",""U14"",""U8"",""U22""]","5","5","0","0","0","0","","3899","","{""confidence_rating"":""Slightly unconfident""}","confidence_question","[0]","","","","","","","","","shopping","Predictable","","","","P23","23","1","2","","","","","","","","","","","","","Slightly unconfident"
"","","","","","video-keyboard-response","34","2.0.0","528200","70","1","2026-06-08 14:07:30","segmentation_norming_randomized_order_maxrun_attention_v4","75.159.35.253","Mozilla/5.0 (Macintosh; Intel Mac OS X 10_15_7) AppleWebKit/537.36 (KHTML, like Gecko) Chrome/148.0.0.0 Safari/537.36","Macintosh","Chrome","148.0.0.0","OS X","10_15_7","https://uencdihehs.cognition.run/?PROLIFIC_PID=69ebf7ef9b1f438ecd629727&STUDY_ID=6a230fc25d128c9d1b56061a&STUDY_ID=6a230fc25d128c9d1b56061a&SESSION_ID=6a26cc9232399d330febc0da?PROLIFIC_PID=69ebf7ef9b1f438ecd629727&SESSION_ID=6a26cc9232399d330febc0da?","en-US,en;q=0.9","69ebf7ef9b1f438ecd629727","6a230fc25d128c9d1b56061a","6a26cc9232399d330febc0da?","69ebf7ef9b1f438ecd629727","6a230fc25d128c9d1b56061a","6a26cc9232399d330febc0da?","30","[24,23,12,1,25,20,21,16,27,7,15,18,4,3,2,10,29,9,13,28,19,26,6,11,5,30,17,14,8,22]","[""P24"",""P23"",""U12"",""P1"",""P25"",""P20"",""U21"",""U16"",""U27"",""U7"",""P15"",""P18"",""U4"",""P3"",""P2"",""U10"",""U29"",""U9"",""U13"",""U28"",""P19"",""U26"",""U6"",""P11"",""U5"",""U30"",""U17"",""P14"",""P8"",""P22""]","[""U24"",""U23"",""P12"",""U1"",""U25"",""U20"",""P21"",""P16"",""P27"",""P7"",""U15"",""U18"",""P4"",""U3"",""U2"",""P10"",""P29"",""P9"",""P13"",""P28"",""U19"",""P26"",""P6"",""U11"",""P5"",""P30"",""P17"",""U14"",""U8"",""U22""]","5","5","0","0","0","0","","null","[""football_v2.mp4""]","null","segmentation_video","","","","","","","","","football_v2.mp4","football","Unpredictable","[1.609175,4.983696,8.97521,21.036527,29.931024]","5","","U12","12","1","3","3.374521","false","false","false","","false","0","0","false","false","false","false",""
"","","","","","survey-multi-choice","37","2.0.0","530969","70","1","2026-06-08 14:07:30","segmentation_norming_randomized_order_maxrun_attention_v4","75.159.35.253","Mozilla/5.0 (Macintosh; Intel Mac OS X 10_15_7) AppleWebKit/537.36 (KHTML, like Gecko) Chrome/148.0.0.0 Safari/537.36","Macintosh","Chrome","148.0.0.0","OS X","10_15_7","https://uencdihehs.cognition.run/?PROLIFIC_PID=69ebf7ef9b1f438ecd629727&STUDY_ID=6a230fc25d128c9d1b56061a&STUDY_ID=6a230fc25d128c9d1b56061a&SESSION_ID=6a26cc9232399d330febc0da?PROLIFIC_PID=69ebf7ef9b1f438ecd629727&SESSION_ID=6a26cc9232399d330febc0da?","en-US,en;q=0.9","69ebf7ef9b1f438ecd629727","6a230fc25d128c9d1b56061a","6a26cc9232399d330febc0da?","69ebf7ef9b1f438ecd629727","6a230fc25d128c9d1b56061a","6a26cc9232399d330febc0da?","30","[24,23,12,1,25,20,21,16,27,7,15,18,4,3,2,10,29,9,13,28,19,26,6,11,5,30,17,14,8,22]","[""P24"",""P23"",""U12"",""P1"",""P25"",""P20"",""U21"",""U16"",""U27"",""U7"",""P15"",""P18"",""U4"",""P3"",""P2"",""U10"",""U29"",""U9"",""U13"",""U28"",""P19"",""U26"",""U6"",""P11"",""U5"",""U30"",""U17"",""P14"",""P8"",""P22""]","[""U24"",""U23"",""P12"",""U1"",""U25"",""U20"",""P21"",""P16"",""P27"",""P7"",""U15"",""U18"",""P4"",""U3"",""U2"",""P10"",""P29"",""P9"",""P13"",""P28"",""U19"",""P26"",""P6"",""U11"",""P5"",""P30"",""P17"",""U14"",""U8"",""U22""]","5","5","0","0","0","0","","2766","","{""confidence_rating"":""Moderately confident""}","confidence_question","[0]","","","","","","","","","football","Unpredictable","","","","U12","12","1","3","","","","","","","","","","","","","Moderately confident"
"","","","","","video-keyboard-response","38","2.0.0","559838","70","1","2026-06-08 14:07:30","segmentation_norming_randomized_order_maxrun_attention_v4","75.159.35.253","Mozilla/5.0 (Macintosh; Intel Mac OS X 10_15_7) AppleWebKit/537.36 (KHTML, like Gecko) Chrome/148.0.0.0 Safari/537.36","Macintosh","Chrome","148.0.0.0","OS X","10_15_7","https://uencdihehs.cognition.run/?PROLIFIC_PID=69ebf7ef9b1f438ecd629727&STUDY_ID=6a230fc25d128c9d1b56061a&STUDY_ID=6a230fc25d128c9d1b56061a&SESSION_ID=6a26cc9232399d330febc0da?PROLIFIC_PID=69ebf7ef9b1f438ecd629727&SESSION_ID=6a26cc9232399d330febc0da?","en-US,en;q=0.9","69ebf7ef9b1f438ecd629727","6a230fc25d128c9d1b56061a","6a26cc9232399d330febc0da?","69ebf7ef9b1f438ecd629727","6a230fc25d128c9d1b56061a","6a26cc9232399d330febc0da?","30","[24,23,12,1,25,20,21,16,27,7,15,18,4,3,2,10,29,9,13,28,19,26,6,11,5,30,17,14,8,22]","[""P24"",""P23"",""U12"",""P1"",""P25"",""P20"",""U21"",""U16"",""U27"",""U7"",""P15"",""P18"",""U4"",""P3"",""P2"",""U10"",""U29"",""U9"",""U13"",""U28"",""P19"",""U26"",""U6"",""P11"",""U5"",""U30"",""U17"",""P14"",""P8"",""P22""]","[""U24"",""U23"",""P12"",""U1"",""U25"",""U20"",""P21"",""P16"",""P27"",""P7"",""U15"",""U18"",""P4"",""U3"",""U2"",""P10"",""P29"",""P9"",""P13"",""P28"",""U19"",""P26"",""P6"",""U11"",""P5"",""P30"",""P17"",""U14"",""U8"",""U22""]","5","5","0","0","0","0","","null","[""baking_v1.mp4""]","null","segmentation_video","","","","","","","","","baking_v1.mp4","baking","Predictable","[2.475399,8.445632,18.077078,20.042107,22.037324,23.625887,26.251037]","7","","P1","1","1","4","1.588562999999997","false","false","false","","false","0","0","false","false","false","false",""
"","","","","","survey-multi-choice","41","2.0.0","562684","70","1","2026-06-08 14:07:30","segmentation_norming_randomized_order_maxrun_attention_v4","75.159.35.253","Mozilla/5.0 (Macintosh; Intel Mac OS X 10_15_7) AppleWebKit/537.36 (KHTML, like Gecko) Chrome/148.0.0.0 Safari/537.36","Macintosh","Chrome","148.0.0.0","OS X","10_15_7","https://uencdihehs.cognition.run/?PROLIFIC_PID=69ebf7ef9b1f438ecd629727&STUDY_ID=6a230fc25d128c9d1b56061a&STUDY_ID=6a230fc25d128c9d1b56061a&SESSION_ID=6a26cc9232399d330febc0da?PROLIFIC_PID=69ebf7ef9b1f438ecd629727&SESSION_ID=6a26cc9232399d330febc0da?","en-US,en;q=0.9","69ebf7ef9b1f438ecd629727","6a230fc25d128c9d1b56061a","6a26cc9232399d330febc0da?","69ebf7ef9b1f438ecd629727","6a230fc25d128c9d1b56061a","6a26cc9232399d330febc0da?","30","[24,23,12,1,25,20,21,16,27,7,15,18,4,3,2,10,29,9,13,28,19,26,6,11,5,30,17,14,8,22]","[""P24"",""P23"",""U12"",""P1"",""P25"",""P20"",""U21"",""U16"",""U27"",""U7"",""P15"",""P18"",""U4"",""P3"",""P2"",""U10"",""U29"",""U9"",""U13"",""U28"",""P19"",""U26"",""U6"",""P11"",""U5"",""U30"",""U17"",""P14"",""P8"",""P22""]","[""U24"",""U23"",""P12"",""U1"",""U25"",""U20"",""P21"",""P16"",""P27"",""P7"",""U15"",""U18"",""P4"",""U3"",""U2"",""P10"",""P29"",""P9"",""P13"",""P28"",""U19"",""P26"",""P6"",""U11"",""P5"",""P30"",""P17"",""U14"",""U8"",""U22""]","5","5","0","0","0","0","","2844","","{""confidence_rating"":""Moderately confident""}","confidence_question","[0]","","","","","","","","","baking","Predictable","","","","P1","1","1","4","","","","","","","","","","","","","Moderately confident"
"","","","","","video-keyboard-response","42","2.0.0","589961","70","1","2026-06-08 14:07:30","segmentation_norming_randomized_order_maxrun_attention_v4","75.159.35.253","Mozilla/5.0 (Macintosh; Intel Mac OS X 10_15_7) AppleWebKit/537.36 (KHTML, like Gecko) Chrome/148.0.0.0 Safari/537.36","Macintosh","Chrome","148.0.0.0","OS X","10_15_7","https://uencdihehs.cognition.run/?PROLIFIC_PID=69ebf7ef9b1f438ecd629727&STUDY_ID=6a230fc25d128c9d1b56061a&STUDY_ID=6a230fc25d128c9d1b56061a&SESSION_ID=6a26cc9232399d330febc0da?PROLIFIC_PID=69ebf7ef9b1f438ecd629727&SESSION_ID=6a26cc9232399d330febc0da?","en-US,en;q=0.9","69ebf7ef9b1f438ecd629727","6a230fc25d128c9d1b56061a","6a26cc9232399d330febc0da?","69ebf7ef9b1f438ecd629727","6a230fc25d128c9d1b56061a","6a26cc9232399d330febc0da?","30","[24,23,12,1,25,20,21,16,27,7,15,18,4,3,2,10,29,9,13,28,19,26,6,11,5,30,17,14,8,22]","[""P24"",""P23"",""U12"",""P1"",""P25"",""P20"",""U21"",""U16"",""U27"",""U7"",""P15"",""P18"",""U4"",""P3"",""P2"",""U10"",""U29"",""U9"",""U13"",""U28"",""P19"",""U26"",""U6"",""P11"",""U5"",""U30"",""U17"",""P14"",""P8"",""P22""]","[""U24"",""U23"",""P12"",""U1"",""U25"",""U20"",""P21"",""P16"",""P27"",""P7"",""U15"",""U18"",""P4"",""U3"",""U2"",""P10"",""P29"",""P9"",""P13"",""P28"",""U19"",""P26"",""P6"",""U11"",""P5"",""P30"",""P17"",""U14"",""U8"",""U22""]","5","5","0","0","0","0","","null","[""suitcase_v1.mp4""]","null","segmentation_video","","","","","","","","","suitcase_v1.mp4","suitcase","Predictable","[1.009318,5.359323,8.748602,13.102648,17.302865,21.707306,25.325695]","7","","P25","25","1","5","3.389279","false","false","false","","false","0","0","false","false","false","false",""
"","","","","","survey-multi-choice","45","2.0.0","592318","70","1","2026-06-08 14:07:30","segmentation_norming_randomized_order_maxrun_attention_v4","75.159.35.253","Mozilla/5.0 (Macintosh; Intel Mac OS X 10_15_7) AppleWebKit/537.36 (KHTML, like Gecko) Chrome/148.0.0.0 Safari/537.36","Macintosh","Chrome","148.0.0.0","OS X","10_15_7","https://uencdihehs.cognition.run/?PROLIFIC_PID=69ebf7ef9b1f438ecd629727&STUDY_ID=6a230fc25d128c9d1b56061a&STUDY_ID=6a230fc25d128c9d1b56061a&SESSION_ID=6a26cc9232399d330febc0da?PROLIFIC_PID=69ebf7ef9b1f438ecd629727&SESSION_ID=6a26cc9232399d330febc0da?","en-US,en;q=0.9","69ebf7ef9b1f438ecd629727","6a230fc25d128c9d1b56061a","6a26cc9232399d330febc0da?","69ebf7ef9b1f438ecd629727","6a230fc25d128c9d1b56061a","6a26cc9232399d330febc0da?","30","[24,23,12,1,25,20,21,16,27,7,15,18,4,3,2,10,29,9,13,28,19,26,6,11,5,30,17,14,8,22]","[""P24"",""P23"",""U12"",""P1"",""P25"",""P20"",""U21"",""U16"",""U27"",""U7"",""P15"",""P18"",""U4"",""P3"",""P2"",""U10"",""U29"",""U9"",""U13"",""U28"",""P19"",""U26"",""U6"",""P11"",""U5"",""U30"",""U17"",""P14"",""P8"",""P22""]","[""U24"",""U23"",""P12"",""U1"",""U25"",""U20"",""P21"",""P16"",""P27"",""P7"",""U15"",""U18"",""P4"",""U3"",""U2"",""P10"",""P29"",""P9"",""P13"",""P28"",""U19"",""P26"",""P6"",""U11"",""P5"",""P30"",""P17"",""U14"",""U8"",""U22""]","5","5","0","0","0","0","","2355","","{""confidence_rating"":""Moderately confident""}","confidence_question","[0]","","","","","","","","","suitcase","Predictable","","","","P25","25","1","5","","","","","","","","","","","","","Moderately confident"
"","","","","","video-keyboard-response","46","2.0.0","615967","70","1","2026-06-08 14:07:30","segmentation_norming_randomized_order_maxrun_attention_v4","75.159.35.253","Mozilla/5.0 (Macintosh; Intel Mac OS X 10_15_7) AppleWebKit/537.36 (KHTML, like Gecko) Chrome/148.0.0.0 Safari/537.36","Macintosh","Chrome","148.0.0.0","OS X","10_15_7","https://uencdihehs.cognition.run/?PROLIFIC_PID=69ebf7ef9b1f438ecd629727&STUDY_ID=6a230fc25d128c9d1b56061a&STUDY_ID=6a230fc25d128c9d1b56061a&SESSION_ID=6a26cc9232399d330febc0da?PROLIFIC_PID=69ebf7ef9b1f438ecd629727&SESSION_ID=6a26cc9232399d330febc0da?","en-US,en;q=0.9","69ebf7ef9b1f438ecd629727","6a230fc25d128c9d1b56061a","6a26cc9232399d330febc0da?","69ebf7ef9b1f438ecd629727","6a230fc25d128c9d1b56061a","6a26cc9232399d330febc0da?","30","[24,23,12,1,25,20,21,16,27,7,15,18,4,3,2,10,29,9,13,28,19,26,6,11,5,30,17,14,8,22]","[""P24"",""P23"",""U12"",""P1"",""P25"",""P20"",""U21"",""U16"",""U27"",""U7"",""P15"",""P18"",""U4"",""P3"",""P2"",""U10"",""U29"",""U9"",""U13"",""U28"",""P19"",""U26"",""U6"",""P11"",""U5"",""U30"",""U17"",""P14"",""P8"",""P22""]","[""U24"",""U23"",""P12"",""U1"",""U25"",""U20"",""P21"",""P16"",""P27"",""P7"",""U15"",""U18"",""P4"",""U3"",""U2"",""P10"",""P29"",""P9"",""P13"",""P28"",""U19"",""P26"",""P6"",""U11"",""P5"",""P30"",""P17"",""U14"",""U8"",""U22""]","5","5","0","0","0","0","","null","[""poster_v1.mp4""]","null","segmentation_video","","","","","","","","","poster_v1.mp4","poster","Predictable","[3.67488,6.510209,13.079005,16.800656,21.732467]","5","","P20","20","1","6","2.8353289999999998","false","false","false","","false","0","0","false","false","false","false",""
"","","","","","survey-multi-choice","49","2.0.0","618602","70","1","2026-06-08 14:07:30","segmentation_norming_randomized_order_maxrun_attention_v4","75.159.35.253","Mozilla/5.0 (Macintosh; Intel Mac OS X 10_15_7) AppleWebKit/537.36 (KHTML, like Gecko) Chrome/148.0.0.0 Safari/537.36","Macintosh","Chrome","148.0.0.0","OS X","10_15_7","https://uencdihehs.cognition.run/?PROLIFIC_PID=69ebf7ef9b1f438ecd629727&STUDY_ID=6a230fc25d128c9d1b56061a&STUDY_ID=6a230fc25d128c9d1b56061a&SESSION_ID=6a26cc9232399d330febc0da?PROLIFIC_PID=69ebf7ef9b1f438ecd629727&SESSION_ID=6a26cc9232399d330febc0da?","en-US,en;q=0.9","69ebf7ef9b1f438ecd629727","6a230fc25d128c9d1b56061a","6a26cc9232399d330febc0da?","69ebf7ef9b1f438ecd629727","6a230fc25d128c9d1b56061a","6a26cc9232399d330febc0da?","30","[24,23,12,1,25,20,21,16,27,7,15,18,4,3,2,10,29,9,13,28,19,26,6,11,5,30,17,14,8,22]","[""P24"",""P23"",""U12"",""P1"",""P25"",""P20"",""U21"",""U16"",""U27"",""U7"",""P15"",""P18"",""U4"",""P3"",""P2"",""U10"",""U29"",""U9"",""U13"",""U28"",""P19"",""U26"",""U6"",""P11"",""U5"",""U30"",""U17"",""P14"",""P8"",""P22""]","[""U24"",""U23"",""P12"",""U1"",""U25"",""U20"",""P21"",""P16"",""P27"",""P7"",""U15"",""U18"",""P4"",""U3"",""U2"",""P10"",""P29"",""P9"",""P13"",""P28"",""U19"",""P26"",""P6"",""U11"",""P5"",""P30"",""P17"",""U14"",""U8"",""U22""]","5","5","0","0","0","0","","2632","","{""confidence_rating"":""Slightly unconfident""}","confidence_question","[0]","","","","","","","","","poster","Predictable","","","","P20","20","1","6","","","","","","","","","","","","","Slightly unconfident"
"","","","","","video-keyboard-response","50","2.0.0","662773","70","1","2026-06-08 14:07:30","segmentation_norming_randomized_order_maxrun_attention_v4","75.159.35.253","Mozilla/5.0 (Macintosh; Intel Mac OS X 10_15_7) AppleWebKit/537.36 (KHTML, like Gecko) Chrome/148.0.0.0 Safari/537.36","Macintosh","Chrome","148.0.0.0","OS X","10_15_7","https://uencdihehs.cognition.run/?PROLIFIC_PID=69ebf7ef9b1f438ecd629727&STUDY_ID=6a230fc25d128c9d1b56061a&STUDY_ID=6a230fc25d128c9d1b56061a&SESSION_ID=6a26cc9232399d330febc0da?PROLIFIC_PID=69ebf7ef9b1f438ecd629727&SESSION_ID=6a26cc9232399d330febc0da?","en-US,en;q=0.9","69ebf7ef9b1f438ecd629727","6a230fc25d128c9d1b56061a","6a26cc9232399d330febc0da?","69ebf7ef9b1f438ecd629727","6a230fc25d128c9d1b56061a","6a26cc9232399d330febc0da?","30","[24,23,12,1,25,20,21,16,27,7,15,18,4,3,2,10,29,9,13,28,19,26,6,11,5,30,17,14,8,22]","[""P24"",""P23"",""U12"",""P1"",""P25"",""P20"",""U21"",""U16"",""U27"",""U7"",""P15"",""P18"",""U4"",""P3"",""P2"",""U10"",""U29"",""U9"",""U13"",""U28"",""P19"",""U26"",""U6"",""P11"",""U5"",""U30"",""U17"",""P14"",""P8"",""P22""]","[""U24"",""U23"",""P12"",""U1"",""U25"",""U20"",""P21"",""P16"",""P27"",""P7"",""U15"",""U18"",""P4"",""U3"",""U2"",""P10"",""P29"",""P9"",""P13"",""P28"",""U19"",""P26"",""P6"",""U11"",""P5"",""P30"",""P17"",""U14"",""U8"",""U22""]","5","5","0","0","0","0","","null","[""printer_v2.mp4""]","null","segmentation_video","","","","","","","","","printer_v2.mp4","printer","Unpredictable","[4.349137,8.967195,14.63982,22.739729,25.554667,28.499186,33.419299,36.420652,40.379987,43.62059]","10","","U21","21","1","7","2.814937999999998","false","false","false","","false","0","0","false","false","false","false",""
"","","","","","survey-multi-choice","53","2.0.0","665345","70","1","2026-06-08 14:07:30","segmentation_norming_randomized_order_maxrun_attention_v4","75.159.35.253","Mozilla/5.0 (Macintosh; Intel Mac OS X 10_15_7) AppleWebKit/537.36 (KHTML, like Gecko) Chrome/148.0.0.0 Safari/537.36","Macintosh","Chrome","148.0.0.0","OS X","10_15_7","https://uencdihehs.cognition.run/?PROLIFIC_PID=69ebf7ef9b1f438ecd629727&STUDY_ID=6a230fc25d128c9d1b56061a&STUDY_ID=6a230fc25d128c9d1b56061a&SESSION_ID=6a26cc9232399d330febc0da?PROLIFIC_PID=69ebf7ef9b1f438ecd629727&SESSION_ID=6a26cc9232399d330febc0da?","en-US,en;q=0.9","69ebf7ef9b1f438ecd629727","6a230fc25d128c9d1b56061a","6a26cc9232399d330febc0da?","69ebf7ef9b1f438ecd629727","6a230fc25d128c9d1b56061a","6a26cc9232399d330febc0da?","30","[24,23,12,1,25,20,21,16,27,7,15,18,4,3,2,10,29,9,13,28,19,26,6,11,5,30,17,14,8,22]","[""P24"",""P23"",""U12"",""P1"",""P25"",""P20"",""U21"",""U16"",""U27"",""U7"",""P15"",""P18"",""U4"",""P3"",""P2"",""U10"",""U29"",""U9"",""U13"",""U28"",""P19"",""U26"",""U6"",""P11"",""U5"",""U30"",""U17"",""P14"",""P8"",""P22""]","[""U24"",""U23"",""P12"",""U1"",""U25"",""U20"",""P21"",""P16"",""P27"",""P7"",""U15"",""U18"",""P4"",""U3"",""U2"",""P10"",""P29"",""P9"",""P13"",""P28"",""U19"",""P26"",""P6"",""U11"",""P5"",""P30"",""P17"",""U14"",""U8"",""U22""]","5","5","0","0","0","0","","2570","","{""confidence_rating"":""Moderately confident""}","confidence_question","[0]","","","","","","","","","printer","Unpredictable","","","","U21","21","1","7","","","","","","","","","","","","","Moderately confident"
"","","","","","video-keyboard-response","54","2.0.0","695200","70","1","2026-06-08 14:07:30","segmentation_norming_randomized_order_maxrun_attention_v4","75.159.35.253","Mozilla/5.0 (Macintosh; Intel Mac OS X 10_15_7) AppleWebKit/537.36 (KHTML, like Gecko) Chrome/148.0.0.0 Safari/537.36","Macintosh","Chrome","148.0.0.0","OS X","10_15_7","https://uencdihehs.cognition.run/?PROLIFIC_PID=69ebf7ef9b1f438ecd629727&STUDY_ID=6a230fc25d128c9d1b56061a&STUDY_ID=6a230fc25d128c9d1b56061a&SESSION_ID=6a26cc9232399d330febc0da?PROLIFIC_PID=69ebf7ef9b1f438ecd629727&SESSION_ID=6a26cc9232399d330febc0da?","en-US,en;q=0.9","69ebf7ef9b1f438ecd629727","6a230fc25d128c9d1b56061a","6a26cc9232399d330febc0da?","69ebf7ef9b1f438ecd629727","6a230fc25d128c9d1b56061a","6a26cc9232399d330febc0da?","30","[24,23,12,1,25,20,21,16,27,7,15,18,4,3,2,10,29,9,13,28,19,26,6,11,5,30,17,14,8,22]","[""P24"",""P23"",""U12"",""P1"",""P25"",""P20"",""U21"",""U16"",""U27"",""U7"",""P15"",""P18"",""U4"",""P3"",""P2"",""U10"",""U29"",""U9"",""U13"",""U28"",""P19"",""U26"",""U6"",""P11"",""U5"",""U30"",""U17"",""P14"",""P8"",""P22""]","[""U24"",""U23"",""P12"",""U1"",""U25"",""U20"",""P21"",""P16"",""P27"",""P7"",""U15"",""U18"",""P4"",""U3"",""U2"",""P10"",""P29"",""P9"",""P13"",""P28"",""U19"",""P26"",""P6"",""U11"",""P5"",""P30"",""P17"",""U14"",""U8"",""U22""]","5","5","0","0","0","0","","null","[""mouse_v2.mp4""]","null","segmentation_video","","","","","","","","","mouse_v2.mp4","mouse","Unpredictable","[2.7207,6.574843,12.980549,19.311703,24.682696,28.835794]","6","","U16","16","1","8","3.8541430000000005","false","false","false","","false","0","0","false","false","false","false",""
"","","","","","survey-multi-choice","57","2.0.0","698419","70","1","2026-06-08 14:07:30","segmentation_norming_randomized_order_maxrun_attention_v4","75.159.35.253","Mozilla/5.0 (Macintosh; Intel Mac OS X 10_15_7) AppleWebKit/537.36 (KHTML, like Gecko) Chrome/148.0.0.0 Safari/537.36","Macintosh","Chrome","148.0.0.0","OS X","10_15_7","https://uencdihehs.cognition.run/?PROLIFIC_PID=69ebf7ef9b1f438ecd629727&STUDY_ID=6a230fc25d128c9d1b56061a&STUDY_ID=6a230fc25d128c9d1b56061a&SESSION_ID=6a26cc9232399d330febc0da?PROLIFIC_PID=69ebf7ef9b1f438ecd629727&SESSION_ID=6a26cc9232399d330febc0da?","en-US,en;q=0.9","69ebf7ef9b1f438ecd629727","6a230fc25d128c9d1b56061a","6a26cc9232399d330febc0da?","69ebf7ef9b1f438ecd629727","6a230fc25d128c9d1b56061a","6a26cc9232399d330febc0da?","30","[24,23,12,1,25,20,21,16,27,7,15,18,4,3,2,10,29,9,13,28,19,26,6,11,5,30,17,14,8,22]","[""P24"",""P23"",""U12"",""P1"",""P25"",""P20"",""U21"",""U16"",""U27"",""U7"",""P15"",""P18"",""U4"",""P3"",""P2"",""U10"",""U29"",""U9"",""U13"",""U28"",""P19"",""U26"",""U6"",""P11"",""U5"",""U30"",""U17"",""P14"",""P8"",""P22""]","[""U24"",""U23"",""P12"",""U1"",""U25"",""U20"",""P21"",""P16"",""P27"",""P7"",""U15"",""U18"",""P4"",""U3"",""U2"",""P10"",""P29"",""P9"",""P13"",""P28"",""U19"",""P26"",""P6"",""U11"",""P5"",""P30"",""P17"",""U14"",""U8"",""U22""]","5","5","0","0","0","0","","3217","","{""confidence_rating"":""Moderately confident""}","confidence_question","[0]","","","","","","","","","mouse","Unpredictable","","","","U16","16","1","8","","","","","","","","","","","","","Moderately confident"
"","","","","","video-keyboard-response","58","2.0.0","729419","70","1","2026-06-08 14:07:30","segmentation_norming_randomized_order_maxrun_attention_v4","75.159.35.253","Mozilla/5.0 (Macintosh; Intel Mac OS X 10_15_7) AppleWebKit/537.36 (KHTML, like Gecko) Chrome/148.0.0.0 Safari/537.36","Macintosh","Chrome","148.0.0.0","OS X","10_15_7","https://uencdihehs.cognition.run/?PROLIFIC_PID=69ebf7ef9b1f438ecd629727&STUDY_ID=6a230fc25d128c9d1b56061a&STUDY_ID=6a230fc25d128c9d1b56061a&SESSION_ID=6a26cc9232399d330febc0da?PROLIFIC_PID=69ebf7ef9b1f438ecd629727&SESSION_ID=6a26cc9232399d330febc0da?","en-US,en;q=0.9","69ebf7ef9b1f438ecd629727","6a230fc25d128c9d1b56061a","6a26cc9232399d330febc0da?","69ebf7ef9b1f438ecd629727","6a230fc25d128c9d1b56061a","6a26cc9232399d330febc0da?","30","[24,23,12,1,25,20,21,16,27,7,15,18,4,3,2,10,29,9,13,28,19,26,6,11,5,30,17,14,8,22]","[""P24"",""P23"",""U12"",""P1"",""P25"",""P20"",""U21"",""U16"",""U27"",""U7"",""P15"",""P18"",""U4"",""P3"",""P2"",""U10"",""U29"",""U9"",""U13"",""U28"",""P19"",""U26"",""U6"",""P11"",""U5"",""U30"",""U17"",""P14"",""P8"",""P22""]","[""U24"",""U23"",""P12"",""U1"",""U25"",""U20"",""P21"",""P16"",""P27"",""P7"",""U15"",""U18"",""P4"",""U3"",""U2"",""P10"",""P29"",""P9"",""P13"",""P28"",""U19"",""P26"",""P6"",""U11"",""P5"",""P30"",""P17"",""U14"",""U8"",""U22""]","5","5","0","0","0","0","","null","[""tea_v2.mp4""]","null","segmentation_video","","","","","","","","","tea_v2.mp4","tea","Unpredictable","[5.10662,6.938475,11.274935,17.245755,24.340603,27.849756,29.980622]","7","","U27","27","1","9","1.831855","false","false","false","","false","0","0","false","false","false","false",""
"","","","","","survey-multi-choice","61","2.0.0","731936","70","1","2026-06-08 14:07:30","segmentation_norming_randomized_order_maxrun_attention_v4","75.159.35.253","Mozilla/5.0 (Macintosh; Intel Mac OS X 10_15_7) AppleWebKit/537.36 (KHTML, like Gecko) Chrome/148.0.0.0 Safari/537.36","Macintosh","Chrome","148.0.0.0","OS X","10_15_7","https://uencdihehs.cognition.run/?PROLIFIC_PID=69ebf7ef9b1f438ecd629727&STUDY_ID=6a230fc25d128c9d1b56061a&STUDY_ID=6a230fc25d128c9d1b56061a&SESSION_ID=6a26cc9232399d330febc0da?PROLIFIC_PID=69ebf7ef9b1f438ecd629727&SESSION_ID=6a26cc9232399d330febc0da?","en-US,en;q=0.9","69ebf7ef9b1f438ecd629727","6a230fc25d128c9d1b56061a","6a26cc9232399d330febc0da?","69ebf7ef9b1f438ecd629727","6a230fc25d128c9d1b56061a","6a26cc9232399d330febc0da?","30","[24,23,12,1,25,20,21,16,27,7,15,18,4,3,2,10,29,9,13,28,19,26,6,11,5,30,17,14,8,22]","[""P24"",""P23"",""U12"",""P1"",""P25"",""P20"",""U21"",""U16"",""U27"",""U7"",""P15"",""P18"",""U4"",""P3"",""P2"",""U10"",""U29"",""U9"",""U13"",""U28"",""P19"",""U26"",""U6"",""P11"",""U5"",""U30"",""U17"",""P14"",""P8"",""P22""]","[""U24"",""U23"",""P12"",""U1"",""U25"",""U20"",""P21"",""P16"",""P27"",""P7"",""U15"",""U18"",""P4"",""U3"",""U2"",""P10"",""P29"",""P9"",""P13"",""P28"",""U19"",""P26"",""P6"",""U11"",""P5"",""P30"",""P17"",""U14"",""U8"",""U22""]","5","5","0","0","0","0","","2515","","{""confidence_rating"":""Moderately confident""}","confidence_question","[0]","","","","","","","","","tea","Unpredictable","","","","U27","27","1","9","","","","","","","","","","","","","Moderately confident"
"","","","","","video-keyboard-response","62","2.0.0","761355","70","1","2026-06-08 14:07:30","segmentation_norming_randomized_order_maxrun_attention_v4","75.159.35.253","Mozilla/5.0 (Macintosh; Intel Mac OS X 10_15_7) AppleWebKit/537.36 (KHTML, like Gecko) Chrome/148.0.0.0 Safari/537.36","Macintosh","Chrome","148.0.0.0","OS X","10_15_7","https://uencdihehs.cognition.run/?PROLIFIC_PID=69ebf7ef9b1f438ecd629727&STUDY_ID=6a230fc25d128c9d1b56061a&STUDY_ID=6a230fc25d128c9d1b56061a&SESSION_ID=6a26cc9232399d330febc0da?PROLIFIC_PID=69ebf7ef9b1f438ecd629727&SESSION_ID=6a26cc9232399d330febc0da?","en-US,en;q=0.9","69ebf7ef9b1f438ecd629727","6a230fc25d128c9d1b56061a","6a26cc9232399d330febc0da?","69ebf7ef9b1f438ecd629727","6a230fc25d128c9d1b56061a","6a26cc9232399d330febc0da?","30","[24,23,12,1,25,20,21,16,27,7,15,18,4,3,2,10,29,9,13,28,19,26,6,11,5,30,17,14,8,22]","[""P24"",""P23"",""U12"",""P1"",""P25"",""P20"",""U21"",""U16"",""U27"",""U7"",""P15"",""P18"",""U4"",""P3"",""P2"",""U10"",""U29"",""U9"",""U13"",""U28"",""P19"",""U26"",""U6"",""P11"",""U5"",""U30"",""U17"",""P14"",""P8"",""P22""]","[""U24"",""U23"",""P12"",""U1"",""U25"",""U20"",""P21"",""P16"",""P27"",""P7"",""U15"",""U18"",""P4"",""U3"",""U2"",""P10"",""P29"",""P9"",""P13"",""P28"",""U19"",""P26"",""P6"",""U11"",""P5"",""P30"",""P17"",""U14"",""U8"",""U22""]","5","5","0","0","0","0","","null","[""bike_v2.mp4""]","null","segmentation_video","","","","","","","","","bike_v2.mp4","bike","Unpredictable","[4.297751,11.017264,16.416061,20.182486,27.533827]","5","","U7","7","1","10","3.7664250000000017","false","false","false","","false","0","0","false","false","false","false",""
"","","","","","survey-multi-choice","65","2.0.0","763739","70","1","2026-06-08 14:07:30","segmentation_norming_randomized_order_maxrun_attention_v4","75.159.35.253","Mozilla/5.0 (Macintosh; Intel Mac OS X 10_15_7) AppleWebKit/537.36 (KHTML, like Gecko) Chrome/148.0.0.0 Safari/537.36","Macintosh","Chrome","148.0.0.0","OS X","10_15_7","https://uencdihehs.cognition.run/?PROLIFIC_PID=69ebf7ef9b1f438ecd629727&STUDY_ID=6a230fc25d128c9d1b56061a&STUDY_ID=6a230fc25d128c9d1b56061a&SESSION_ID=6a26cc9232399d330febc0da?PROLIFIC_PID=69ebf7ef9b1f438ecd629727&SESSION_ID=6a26cc9232399d330febc0da?","en-US,en;q=0.9","69ebf7ef9b1f438ecd629727","6a230fc25d128c9d1b56061a","6a26cc9232399d330febc0da?","69ebf7ef9b1f438ecd629727","6a230fc25d128c9d1b56061a","6a26cc9232399d330febc0da?","30","[24,23,12,1,25,20,21,16,27,7,15,18,4,3,2,10,29,9,13,28,19,26,6,11,5,30,17,14,8,22]","[""P24"",""P23"",""U12"",""P1"",""P25"",""P20"",""U21"",""U16"",""U27"",""U7"",""P15"",""P18"",""U4"",""P3"",""P2"",""U10"",""U29"",""U9"",""U13"",""U28"",""P19"",""U26"",""U6"",""P11"",""U5"",""U30"",""U17"",""P14"",""P8"",""P22""]","[""U24"",""U23"",""P12"",""U1"",""U25"",""U20"",""P21"",""P16"",""P27"",""P7"",""U15"",""U18"",""P4"",""U3"",""U2"",""P10"",""P29"",""P9"",""P13"",""P28"",""U19"",""P26"",""P6"",""U11"",""P5"",""P30"",""P17"",""U14"",""U8"",""U22""]","5","5","0","0","0","0","","2381","","{""confidence_rating"":""Moderately confident""}","confidence_question","[0]","","","","","","","","","bike","Unpredictable","","","","U7","7","1","10","","","","","","","","","","","","","Moderately confident"
"","","","","","video-keyboard-response","66","2.0.0","794700","70","1","2026-06-08 14:07:30","segmentation_norming_randomized_order_maxrun_attention_v4","75.159.35.253","Mozilla/5.0 (Macintosh; Intel Mac OS X 10_15_7) AppleWebKit/537.36 (KHTML, like Gecko) Chrome/148.0.0.0 Safari/537.36","Macintosh","Chrome","148.0.0.0","OS X","10_15_7","https://uencdihehs.cognition.run/?PROLIFIC_PID=69ebf7ef9b1f438ecd629727&STUDY_ID=6a230fc25d128c9d1b56061a&STUDY_ID=6a230fc25d128c9d1b56061a&SESSION_ID=6a26cc9232399d330febc0da?PROLIFIC_PID=69ebf7ef9b1f438ecd629727&SESSION_ID=6a26cc9232399d330febc0da?","en-US,en;q=0.9","69ebf7ef9b1f438ecd629727","6a230fc25d128c9d1b56061a","6a26cc9232399d330febc0da?","69ebf7ef9b1f438ecd629727","6a230fc25d128c9d1b56061a","6a26cc9232399d330febc0da?","30","[24,23,12,1,25,20,21,16,27,7,15,18,4,3,2,10,29,9,13,28,19,26,6,11,5,30,17,14,8,22]","[""P24"",""P23"",""U12"",""P1"",""P25"",""P20"",""U21"",""U16"",""U27"",""U7"",""P15"",""P18"",""U4"",""P3"",""P2"",""U10"",""U29"",""U9"",""U13"",""U28"",""P19"",""U26"",""U6"",""P11"",""U5"",""U30"",""U17"",""P14"",""P8"",""P22""]","[""U24"",""U23"",""P12"",""U1"",""U25"",""U20"",""P21"",""P16"",""P27"",""P7"",""U15"",""U18"",""P4"",""U3"",""U2"",""P10"",""P29"",""P9"",""P13"",""P28"",""U19"",""P26"",""P6"",""U11"",""P5"",""P30"",""P17"",""U14"",""U8"",""U22""]","5","5","0","0","0","0","","null","[""laundry_v1.mp4""]","null","segmentation_video","","","","","","","","","laundry_v1.mp4","laundry","Predictable","[2.430391,10.680545,14.130983,20.986412,24.529465,28.726925]","6","","P15","15","1","11","3.450438","false","false","false","","false","0","0","false","false","false","false",""
"","","","","","survey-multi-choice","69","2.0.0","796371","70","1","2026-06-08 14:07:30","segmentation_norming_randomized_order_maxrun_attention_v4","75.159.35.253","Mozilla/5.0 (Macintosh; Intel Mac OS X 10_15_7) AppleWebKit/537.36 (KHTML, like Gecko) Chrome/148.0.0.0 Safari/537.36","Macintosh","Chrome","148.0.0.0","OS X","10_15_7","https://uencdihehs.cognition.run/?PROLIFIC_PID=69ebf7ef9b1f438ecd629727&STUDY_ID=6a230fc25d128c9d1b56061a&STUDY_ID=6a230fc25d128c9d1b56061a&SESSION_ID=6a26cc9232399d330febc0da?PROLIFIC_PID=69ebf7ef9b1f438ecd629727&SESSION_ID=6a26cc9232399d330febc0da?","en-US,en;q=0.9","69ebf7ef9b1f438ecd629727","6a230fc25d128c9d1b56061a","6a26cc9232399d330febc0da?","69ebf7ef9b1f438ecd629727","6a230fc25d128c9d1b56061a","6a26cc9232399d330febc0da?","30","[24,23,12,1,25,20,21,16,27,7,15,18,4,3,2,10,29,9,13,28,19,26,6,11,5,30,17,14,8,22]","[""P24"",""P23"",""U12"",""P1"",""P25"",""P20"",""U21"",""U16"",""U27"",""U7"",""P15"",""P18"",""U4"",""P3"",""P2"",""U10"",""U29"",""U9"",""U13"",""U28"",""P19"",""U26"",""U6"",""P11"",""U5"",""U30"",""U17"",""P14"",""P8"",""P22""]","[""U24"",""U23"",""P12"",""U1"",""U25"",""U20"",""P21"",""P16"",""P27"",""P7"",""U15"",""U18"",""P4"",""U3"",""U2"",""P10"",""P29"",""P9"",""P13"",""P28"",""U19"",""P26"",""P6"",""U11"",""P5"",""P30"",""P17"",""U14"",""U8"",""U22""]","5","5","0","0","0","0","","1669","","{""confidence_rating"":""Moderately confident""}","confidence_question","[0]","","","","","","","","","laundry","Predictable","","","","P15","15","1","11","","","","","","","","","","","","","Moderately confident"
"","","","","","video-keyboard-response","70","2.0.0","821047","70","1","2026-06-08 14:07:30","segmentation_norming_randomized_order_maxrun_attention_v4","75.159.35.253","Mozilla/5.0 (Macintosh; Intel Mac OS X 10_15_7) AppleWebKit/537.36 (KHTML, like Gecko) Chrome/148.0.0.0 Safari/537.36","Macintosh","Chrome","148.0.0.0","OS X","10_15_7","https://uencdihehs.cognition.run/?PROLIFIC_PID=69ebf7ef9b1f438ecd629727&STUDY_ID=6a230fc25d128c9d1b56061a&STUDY_ID=6a230fc25d128c9d1b56061a&SESSION_ID=6a26cc9232399d330febc0da?PROLIFIC_PID=69ebf7ef9b1f438ecd629727&SESSION_ID=6a26cc9232399d330febc0da?","en-US,en;q=0.9","69ebf7ef9b1f438ecd629727","6a230fc25d128c9d1b56061a","6a26cc9232399d330febc0da?","69ebf7ef9b1f438ecd629727","6a230fc25d128c9d1b56061a","6a26cc9232399d330febc0da?","30","[24,23,12,1,25,20,21,16,27,7,15,18,4,3,2,10,29,9,13,28,19,26,6,11,5,30,17,14,8,22]","[""P24"",""P23"",""U12"",""P1"",""P25"",""P20"",""U21"",""U16"",""U27"",""U7"",""P15"",""P18"",""U4"",""P3"",""P2"",""U10"",""U29"",""U9"",""U13"",""U28"",""P19"",""U26"",""U6"",""P11"",""U5"",""U30"",""U17"",""P14"",""P8"",""P22""]","[""U24"",""U23"",""P12"",""U1"",""U25"",""U20"",""P21"",""P16"",""P27"",""P7"",""U15"",""U18"",""P4"",""U3"",""U2"",""P10"",""P29"",""P9"",""P13"",""P28"",""U19"",""P26"",""P6"",""U11"",""P5"",""P30"",""P17"",""U14"",""U8"",""U22""]","5","5","0","0","0","0","","null","[""painting_v1.mp4""]","null","segmentation_video","","","","","","","","","painting_v1.mp4","painting","Predictable","[5.101349,11.927617,15.977429,21.242823,23.012499]","5","","P18","18","1","12","1.769675999999997","false","false","false","","false","0","0","false","false","false","false",""
"","","","","","survey-multi-choice","73","2.0.0","823771","70","1","2026-06-08 14:07:30","segmentation_norming_randomized_order_maxrun_attention_v4","75.159.35.253","Mozilla/5.0 (Macintosh; Intel Mac OS X 10_15_7) AppleWebKit/537.36 (KHTML, like Gecko) Chrome/148.0.0.0 Safari/537.36","Macintosh","Chrome","148.0.0.0","OS X","10_15_7","https://uencdihehs.cognition.run/?PROLIFIC_PID=69ebf7ef9b1f438ecd629727&STUDY_ID=6a230fc25d128c9d1b56061a&STUDY_ID=6a230fc25d128c9d1b56061a&SESSION_ID=6a26cc9232399d330febc0da?PROLIFIC_PID=69ebf7ef9b1f438ecd629727&SESSION_ID=6a26cc9232399d330febc0da?","en-US,en;q=0.9","69ebf7ef9b1f438ecd629727","6a230fc25d128c9d1b56061a","6a26cc9232399d330febc0da?","69ebf7ef9b1f438ecd629727","6a230fc25d128c9d1b56061a","6a26cc9232399d330febc0da?","30","[24,23,12,1,25,20,21,16,27,7,15,18,4,3,2,10,29,9,13,28,19,26,6,11,5,30,17,14,8,22]","[""P24"",""P23"",""U12"",""P1"",""P25"",""P20"",""U21"",""U16"",""U27"",""U7"",""P15"",""P18"",""U4"",""P3"",""P2"",""U10"",""U29"",""U9"",""U13"",""U28"",""P19"",""U26"",""U6"",""P11"",""U5"",""U30"",""U17"",""P14"",""P8"",""P22""]","[""U24"",""U23"",""P12"",""U1"",""U25"",""U20"",""P21"",""P16"",""P27"",""P7"",""U15"",""U18"",""P4"",""U3"",""U2"",""P10"",""P29"",""P9"",""P13"",""P28"",""U19"",""P26"",""P6"",""U11"",""P5"",""P30"",""P17"",""U14"",""U8"",""U22""]","5","5","0","0","0","0","","2722","","{""confidence_rating"":""Slightly unconfident""}","confidence_question","[0]","","","","","","","","","painting","Predictable","","","","P18","18","1","12","","","","","","","","","","","","","Slightly unconfident"
"","","","","","video-keyboard-response","74","2.0.0","858999","70","1","2026-06-08 14:07:30","segmentation_norming_randomized_order_maxrun_attention_v4","75.159.35.253","Mozilla/5.0 (Macintosh; Intel Mac OS X 10_15_7) AppleWebKit/537.36 (KHTML, like Gecko) Chrome/148.0.0.0 Safari/537.36","Macintosh","Chrome","148.0.0.0","OS X","10_15_7","https://uencdihehs.cognition.run/?PROLIFIC_PID=69ebf7ef9b1f438ecd629727&STUDY_ID=6a230fc25d128c9d1b56061a&STUDY_ID=6a230fc25d128c9d1b56061a&SESSION_ID=6a26cc9232399d330febc0da?PROLIFIC_PID=69ebf7ef9b1f438ecd629727&SESSION_ID=6a26cc9232399d330febc0da?","en-US,en;q=0.9","69ebf7ef9b1f438ecd629727","6a230fc25d128c9d1b56061a","6a26cc9232399d330febc0da?","69ebf7ef9b1f438ecd629727","6a230fc25d128c9d1b56061a","6a26cc9232399d330febc0da?","30","[24,23,12,1,25,20,21,16,27,7,15,18,4,3,2,10,29,9,13,28,19,26,6,11,5,30,17,14,8,22]","[""P24"",""P23"",""U12"",""P1"",""P25"",""P20"",""U21"",""U16"",""U27"",""U7"",""P15"",""P18"",""U4"",""P3"",""P2"",""U10"",""U29"",""U9"",""U13"",""U28"",""P19"",""U26"",""U6"",""P11"",""U5"",""U30"",""U17"",""P14"",""P8"",""P22""]","[""U24"",""U23"",""P12"",""U1"",""U25"",""U20"",""P21"",""P16"",""P27"",""P7"",""U15"",""U18"",""P4"",""U3"",""U2"",""P10"",""P29"",""P9"",""P13"",""P28"",""U19"",""P26"",""P6"",""U11"",""P5"",""P30"",""P17"",""U14"",""U8"",""U22""]","5","5","0","0","0","0","","null","[""bathroom_v2.mp4""]","null","segmentation_video","","","","","","","","","bathroom_v2.mp4","bathroom","Unpredictable","[3.196346,6.285747,8.715992,12.480213,16.470974,18.181466,22.774178,26.98777,32.958652]","9","","U4","4","1","13","1.7104920000000021","false","false","false","","false","0","0","false","false","false","false",""
"","","","","","survey-multi-choice","77","2.0.0","861591","70","1","2026-06-08 14:07:30","segmentation_norming_randomized_order_maxrun_attention_v4","75.159.35.253","Mozilla/5.0 (Macintosh; Intel Mac OS X 10_15_7) AppleWebKit/537.36 (KHTML, like Gecko) Chrome/148.0.0.0 Safari/537.36","Macintosh","Chrome","148.0.0.0","OS X","10_15_7","https://uencdihehs.cognition.run/?PROLIFIC_PID=69ebf7ef9b1f438ecd629727&STUDY_ID=6a230fc25d128c9d1b56061a&STUDY_ID=6a230fc25d128c9d1b56061a&SESSION_ID=6a26cc9232399d330febc0da?PROLIFIC_PID=69ebf7ef9b1f438ecd629727&SESSION_ID=6a26cc9232399d330febc0da?","en-US,en;q=0.9","69ebf7ef9b1f438ecd629727","6a230fc25d128c9d1b56061a","6a26cc9232399d330febc0da?","69ebf7ef9b1f438ecd629727","6a230fc25d128c9d1b56061a","6a26cc9232399d330febc0da?","30","[24,23,12,1,25,20,21,16,27,7,15,18,4,3,2,10,29,9,13,28,19,26,6,11,5,30,17,14,8,22]","[""P24"",""P23"",""U12"",""P1"",""P25"",""P20"",""U21"",""U16"",""U27"",""U7"",""P15"",""P18"",""U4"",""P3"",""P2"",""U10"",""U29"",""U9"",""U13"",""U28"",""P19"",""U26"",""U6"",""P11"",""U5"",""U30"",""U17"",""P14"",""P8"",""P22""]","[""U24"",""U23"",""P12"",""U1"",""U25"",""U20"",""P21"",""P16"",""P27"",""P7"",""U15"",""U18"",""P4"",""U3"",""U2"",""P10"",""P29"",""P9"",""P13"",""P28"",""U19"",""P26"",""P6"",""U11"",""P5"",""P30"",""P17"",""U14"",""U8"",""U22""]","5","5","0","0","0","0","","2590","","{""confidence_rating"":""Moderately confident""}","confidence_question","[0]","","","","","","","","","bathroom","Unpredictable","","","","U4","4","1","13","","","","","","","","","","","","","Moderately confident"
"","","","","","video-keyboard-response","78","2.0.0","880802","70","1","2026-06-08 14:07:30","segmentation_norming_randomized_order_maxrun_attention_v4","75.159.35.253","Mozilla/5.0 (Macintosh; Intel Mac OS X 10_15_7) AppleWebKit/537.36 (KHTML, like Gecko) Chrome/148.0.0.0 Safari/537.36","Macintosh","Chrome","148.0.0.0","OS X","10_15_7","https://uencdihehs.cognition.run/?PROLIFIC_PID=69ebf7ef9b1f438ecd629727&STUDY_ID=6a230fc25d128c9d1b56061a&STUDY_ID=6a230fc25d128c9d1b56061a&SESSION_ID=6a26cc9232399d330febc0da?PROLIFIC_PID=69ebf7ef9b1f438ecd629727&SESSION_ID=6a26cc9232399d330febc0da?","en-US,en;q=0.9","69ebf7ef9b1f438ecd629727","6a230fc25d128c9d1b56061a","6a26cc9232399d330febc0da?","69ebf7ef9b1f438ecd629727","6a230fc25d128c9d1b56061a","6a26cc9232399d330febc0da?","30","[24,23,12,1,25,20,21,16,27,7,15,18,4,3,2,10,29,9,13,28,19,26,6,11,5,30,17,14,8,22]","[""P24"",""P23"",""U12"",""P1"",""P25"",""P20"",""U21"",""U16"",""U27"",""U7"",""P15"",""P18"",""U4"",""P3"",""P2"",""U10"",""U29"",""U9"",""U13"",""U28"",""P19"",""U26"",""U6"",""P11"",""U5"",""U30"",""U17"",""P14"",""P8"",""P22""]","[""U24"",""U23"",""P12"",""U1"",""U25"",""U20"",""P21"",""P16"",""P27"",""P7"",""U15"",""U18"",""P4"",""U3"",""U2"",""P10"",""P29"",""P9"",""P13"",""P28"",""U19"",""P26"",""P6"",""U11"",""P5"",""P30"",""P17"",""U14"",""U8"",""U22""]","5","5","0","0","0","0","","null","[""bank_v1.mp4""]","null","segmentation_video","","","","","","","","","bank_v1.mp4","bank","Predictable","[5.444147,9.873061,13.767698,18.044714]","4","","P3","3","1","14","3.8946369999999995","false","false","false","","false","0","0","false","false","false","false",""
"","","","","","survey-multi-choice","81","2.0.0","882887","70","1","2026-06-08 14:07:30","segmentation_norming_randomized_order_maxrun_attention_v4","75.159.35.253","Mozilla/5.0 (Macintosh; Intel Mac OS X 10_15_7) AppleWebKit/537.36 (KHTML, like Gecko) Chrome/148.0.0.0 Safari/537.36","Macintosh","Chrome","148.0.0.0","OS X","10_15_7","https://uencdihehs.cognition.run/?PROLIFIC_PID=69ebf7ef9b1f438ecd629727&STUDY_ID=6a230fc25d128c9d1b56061a&STUDY_ID=6a230fc25d128c9d1b56061a&SESSION_ID=6a26cc9232399d330febc0da?PROLIFIC_PID=69ebf7ef9b1f438ecd629727&SESSION_ID=6a26cc9232399d330febc0da?","en-US,en;q=0.9","69ebf7ef9b1f438ecd629727","6a230fc25d128c9d1b56061a","6a26cc9232399d330febc0da?","69ebf7ef9b1f438ecd629727","6a230fc25d128c9d1b56061a","6a26cc9232399d330febc0da?","30","[24,23,12,1,25,20,21,16,27,7,15,18,4,3,2,10,29,9,13,28,19,26,6,11,5,30,17,14,8,22]","[""P24"",""P23"",""U12"",""P1"",""P25"",""P20"",""U21"",""U16"",""U27"",""U7"",""P15"",""P18"",""U4"",""P3"",""P2"",""U10"",""U29"",""U9"",""U13"",""U28"",""P19"",""U26"",""U6"",""P11"",""U5"",""U30"",""U17"",""P14"",""P8"",""P22""]","[""U24"",""U23"",""P12"",""U1"",""U25"",""U20"",""P21"",""P16"",""P27"",""P7"",""U15"",""U18"",""P4"",""U3"",""U2"",""P10"",""P29"",""P9"",""P13"",""P28"",""U19"",""P26"",""P6"",""U11"",""P5"",""P30"",""P17"",""U14"",""U8"",""U22""]","5","5","0","0","0","0","","2083","","{""confidence_rating"":""Moderately confident""}","confidence_question","[0]","","","","","","","","","bank","Predictable","","","","P3","3","1","14","","","","","","","","","","","","","Moderately confident"
"","","","","","video-keyboard-response","82","2.0.0","910755","70","1","2026-06-08 14:07:30","segmentation_norming_randomized_order_maxrun_attention_v4","75.159.35.253","Mozilla/5.0 (Macintosh; Intel Mac OS X 10_15_7) AppleWebKit/537.36 (KHTML, like Gecko) Chrome/148.0.0.0 Safari/537.36","Macintosh","Chrome","148.0.0.0","OS X","10_15_7","https://uencdihehs.cognition.run/?PROLIFIC_PID=69ebf7ef9b1f438ecd629727&STUDY_ID=6a230fc25d128c9d1b56061a&STUDY_ID=6a230fc25d128c9d1b56061a&SESSION_ID=6a26cc9232399d330febc0da?PROLIFIC_PID=69ebf7ef9b1f438ecd629727&SESSION_ID=6a26cc9232399d330febc0da?","en-US,en;q=0.9","69ebf7ef9b1f438ecd629727","6a230fc25d128c9d1b56061a","6a26cc9232399d330febc0da?","69ebf7ef9b1f438ecd629727","6a230fc25d128c9d1b56061a","6a26cc9232399d330febc0da?","30","[24,23,12,1,25,20,21,16,27,7,15,18,4,3,2,10,29,9,13,28,19,26,6,11,5,30,17,14,8,22]","[""P24"",""P23"",""U12"",""P1"",""P25"",""P20"",""U21"",""U16"",""U27"",""U7"",""P15"",""P18"",""U4"",""P3"",""P2"",""U10"",""U29"",""U9"",""U13"",""U28"",""P19"",""U26"",""U6"",""P11"",""U5"",""U30"",""U17"",""P14"",""P8"",""P22""]","[""U24"",""U23"",""P12"",""U1"",""U25"",""U20"",""P21"",""P16"",""P27"",""P7"",""U15"",""U18"",""P4"",""U3"",""U2"",""P10"",""P29"",""P9"",""P13"",""P28"",""U19"",""P26"",""P6"",""U11"",""P5"",""P30"",""P17"",""U14"",""U8"",""U22""]","5","5","0","0","0","0","","null","[""balcony_v1.mp4""]","null","segmentation_video","","","","","","","","","balcony_v1.mp4","balcony","Predictable","[1.651142,4.383593,8.404094,11.855198,15.127473,16.879953,21.292383,25.835957]","8","","P2","2","1","15","1.7524800000000003","false","false","false","","false","0","0","false","false","false","false",""
"","","","","","survey-multi-choice","85","2.0.0","912699","70","1","2026-06-08 14:07:30","segmentation_norming_randomized_order_maxrun_attention_v4","75.159.35.253","Mozilla/5.0 (Macintosh; Intel Mac OS X 10_15_7) AppleWebKit/537.36 (KHTML, like Gecko) Chrome/148.0.0.0 Safari/537.36","Macintosh","Chrome","148.0.0.0","OS X","10_15_7","https://uencdihehs.cognition.run/?PROLIFIC_PID=69ebf7ef9b1f438ecd629727&STUDY_ID=6a230fc25d128c9d1b56061a&STUDY_ID=6a230fc25d128c9d1b56061a&SESSION_ID=6a26cc9232399d330febc0da?PROLIFIC_PID=69ebf7ef9b1f438ecd629727&SESSION_ID=6a26cc9232399d330febc0da?","en-US,en;q=0.9","69ebf7ef9b1f438ecd629727","6a230fc25d128c9d1b56061a","6a26cc9232399d330febc0da?","69ebf7ef9b1f438ecd629727","6a230fc25d128c9d1b56061a","6a26cc9232399d330febc0da?","30","[24,23,12,1,25,20,21,16,27,7,15,18,4,3,2,10,29,9,13,28,19,26,6,11,5,30,17,14,8,22]","[""P24"",""P23"",""U12"",""P1"",""P25"",""P20"",""U21"",""U16"",""U27"",""U7"",""P15"",""P18"",""U4"",""P3"",""P2"",""U10"",""U29"",""U9"",""U13"",""U28"",""P19"",""U26"",""U6"",""P11"",""U5"",""U30"",""U17"",""P14"",""P8"",""P22""]","[""U24"",""U23"",""P12"",""U1"",""U25"",""U20"",""P21"",""P16"",""P27"",""P7"",""U15"",""U18"",""P4"",""U3"",""U2"",""P10"",""P29"",""P9"",""P13"",""P28"",""U19"",""P26"",""P6"",""U11"",""P5"",""P30"",""P17"",""U14"",""U8"",""U22""]","5","5","0","0","0","0","","1942","","{""confidence_rating"":""Moderately confident""}","confidence_question","[0]","","","","","","","","","balcony","Predictable","","","","P2","2","1","15","","","","","","","","","","","","","Moderately confident"
"","","","","","video-keyboard-response","86","2.0.0","943267","70","1","2026-06-08 14:07:30","segmentation_norming_randomized_order_maxrun_attention_v4","75.159.35.253","Mozilla/5.0 (Macintosh; Intel Mac OS X 10_15_7) AppleWebKit/537.36 (KHTML, like Gecko) Chrome/148.0.0.0 Safari/537.36","Macintosh","Chrome","148.0.0.0","OS X","10_15_7","https://uencdihehs.cognition.run/?PROLIFIC_PID=69ebf7ef9b1f438ecd629727&STUDY_ID=6a230fc25d128c9d1b56061a&STUDY_ID=6a230fc25d128c9d1b56061a&SESSION_ID=6a26cc9232399d330febc0da?PROLIFIC_PID=69ebf7ef9b1f438ecd629727&SESSION_ID=6a26cc9232399d330febc0da?","en-US,en;q=0.9","69ebf7ef9b1f438ecd629727","6a230fc25d128c9d1b56061a","6a26cc9232399d330febc0da?","69ebf7ef9b1f438ecd629727","6a230fc25d128c9d1b56061a","6a26cc9232399d330febc0da?","30","[24,23,12,1,25,20,21,16,27,7,15,18,4,3,2,10,29,9,13,28,19,26,6,11,5,30,17,14,8,22]","[""P24"",""P23"",""U12"",""P1"",""P25"",""P20"",""U21"",""U16"",""U27"",""U7"",""P15"",""P18"",""U4"",""P3"",""P2"",""U10"",""U29"",""U9"",""U13"",""U28"",""P19"",""U26"",""U6"",""P11"",""U5"",""U30"",""U17"",""P14"",""P8"",""P22""]","[""U24"",""U23"",""P12"",""U1"",""U25"",""U20"",""P21"",""P16"",""P27"",""P7"",""U15"",""U18"",""P4"",""U3"",""U2"",""P10"",""P29"",""P9"",""P13"",""P28"",""U19"",""P26"",""P6"",""U11"",""P5"",""P30"",""P17"",""U14"",""U8"",""U22""]","5","5","0","0","0","0","","null","[""cleaning_v2.mp4""]","null","segmentation_video","","","","","","","","","cleaning_v2.mp4","cleaning","Unpredictable","[2.659296,6.742873,10.794377,18.640265,21.548259,22.717733,28.79354]","7","","U10","10","1","16","1.1694739999999975","false","false","false","","false","0","0","false","false","false","false",""
"","","","","","survey-multi-choice","89","2.0.0","945421","70","1","2026-06-08 14:07:30","segmentation_norming_randomized_order_maxrun_attention_v4","75.159.35.253","Mozilla/5.0 (Macintosh; Intel Mac OS X 10_15_7) AppleWebKit/537.36 (KHTML, like Gecko) Chrome/148.0.0.0 Safari/537.36","Macintosh","Chrome","148.0.0.0","OS X","10_15_7","https://uencdihehs.cognition.run/?PROLIFIC_PID=69ebf7ef9b1f438ecd629727&STUDY_ID=6a230fc25d128c9d1b56061a&STUDY_ID=6a230fc25d128c9d1b56061a&SESSION_ID=6a26cc9232399d330febc0da?PROLIFIC_PID=69ebf7ef9b1f438ecd629727&SESSION_ID=6a26cc9232399d330febc0da?","en-US,en;q=0.9","69ebf7ef9b1f438ecd629727","6a230fc25d128c9d1b56061a","6a26cc9232399d330febc0da?","69ebf7ef9b1f438ecd629727","6a230fc25d128c9d1b56061a","6a26cc9232399d330febc0da?","30","[24,23,12,1,25,20,21,16,27,7,15,18,4,3,2,10,29,9,13,28,19,26,6,11,5,30,17,14,8,22]","[""P24"",""P23"",""U12"",""P1"",""P25"",""P20"",""U21"",""U16"",""U27"",""U7"",""P15"",""P18"",""U4"",""P3"",""P2"",""U10"",""U29"",""U9"",""U13"",""U28"",""P19"",""U26"",""U6"",""P11"",""U5"",""U30"",""U17"",""P14"",""P8"",""P22""]","[""U24"",""U23"",""P12"",""U1"",""U25"",""U20"",""P21"",""P16"",""P27"",""P7"",""U15"",""U18"",""P4"",""U3"",""U2"",""P10"",""P29"",""P9"",""P13"",""P28"",""U19"",""P26"",""P6"",""U11"",""P5"",""P30"",""P17"",""U14"",""U8"",""U22""]","5","5","0","0","0","0","","2152","","{""confidence_rating"":""Moderately confident""}","confidence_question","[0]","","","","","","","","","cleaning","Unpredictable","","","","U10","10","1","16","","","","","","","","","","","","","Moderately confident"
"","","","","","video-keyboard-response","90","2.0.0","967054","70","1","2026-06-08 14:07:30","segmentation_norming_randomized_order_maxrun_attention_v4","75.159.35.253","Mozilla/5.0 (Macintosh; Intel Mac OS X 10_15_7) AppleWebKit/537.36 (KHTML, like Gecko) Chrome/148.0.0.0 Safari/537.36","Macintosh","Chrome","148.0.0.0","OS X","10_15_7","https://uencdihehs.cognition.run/?PROLIFIC_PID=69ebf7ef9b1f438ecd629727&STUDY_ID=6a230fc25d128c9d1b56061a&STUDY_ID=6a230fc25d128c9d1b56061a&SESSION_ID=6a26cc9232399d330febc0da?PROLIFIC_PID=69ebf7ef9b1f438ecd629727&SESSION_ID=6a26cc9232399d330febc0da?","en-US,en;q=0.9","69ebf7ef9b1f438ecd629727","6a230fc25d128c9d1b56061a","6a26cc9232399d330febc0da?","69ebf7ef9b1f438ecd629727","6a230fc25d128c9d1b56061a","6a26cc9232399d330febc0da?","30","[24,23,12,1,25,20,21,16,27,7,15,18,4,3,2,10,29,9,13,28,19,26,6,11,5,30,17,14,8,22]","[""P24"",""P23"",""U12"",""P1"",""P25"",""P20"",""U21"",""U16"",""U27"",""U7"",""P15"",""P18"",""U4"",""P3"",""P2"",""U10"",""U29"",""U9"",""U13"",""U28"",""P19"",""U26"",""U6"",""P11"",""U5"",""U30"",""U17"",""P14"",""P8"",""P22""]","[""U24"",""U23"",""P12"",""U1"",""U25"",""U20"",""P21"",""P16"",""P27"",""P7"",""U15"",""U18"",""P4"",""U3"",""U2"",""P10"",""P29"",""P9"",""P13"",""P28"",""U19"",""P26"",""P6"",""U11"",""P5"",""P30"",""P17"",""U14"",""U8"",""U22""]","5","5","0","0","0","0","","null","[""walking_v2.mp4""]","null","segmentation_video","","","","","","","","","walking_v2.mp4","walking","Unpredictable","[2.971848,9.254391,14.06979,18.629069]","4","","U29","29","1","17","4.559279000000002","false","false","false","","false","0","0","false","false","false","false",""
"","","","","","survey-multi-choice","93","2.0.0","969073","70","1","2026-06-08 14:07:30","segmentation_norming_randomized_order_maxrun_attention_v4","75.159.35.253","Mozilla/5.0 (Macintosh; Intel Mac OS X 10_15_7) AppleWebKit/537.36 (KHTML, like Gecko) Chrome/148.0.0.0 Safari/537.36","Macintosh","Chrome","148.0.0.0","OS X","10_15_7","https://uencdihehs.cognition.run/?PROLIFIC_PID=69ebf7ef9b1f438ecd629727&STUDY_ID=6a230fc25d128c9d1b56061a&STUDY_ID=6a230fc25d128c9d1b56061a&SESSION_ID=6a26cc9232399d330febc0da?PROLIFIC_PID=69ebf7ef9b1f438ecd629727&SESSION_ID=6a26cc9232399d330febc0da?","en-US,en;q=0.9","69ebf7ef9b1f438ecd629727","6a230fc25d128c9d1b56061a","6a26cc9232399d330febc0da?","69ebf7ef9b1f438ecd629727","6a230fc25d128c9d1b56061a","6a26cc9232399d330febc0da?","30","[24,23,12,1,25,20,21,16,27,7,15,18,4,3,2,10,29,9,13,28,19,26,6,11,5,30,17,14,8,22]","[""P24"",""P23"",""U12"",""P1"",""P25"",""P20"",""U21"",""U16"",""U27"",""U7"",""P15"",""P18"",""U4"",""P3"",""P2"",""U10"",""U29"",""U9"",""U13"",""U28"",""P19"",""U26"",""U6"",""P11"",""U5"",""U30"",""U17"",""P14"",""P8"",""P22""]","[""U24"",""U23"",""P12"",""U1"",""U25"",""U20"",""P21"",""P16"",""P27"",""P7"",""U15"",""U18"",""P4"",""U3"",""U2"",""P10"",""P29"",""P9"",""P13"",""P28"",""U19"",""P26"",""P6"",""U11"",""P5"",""P30"",""P17"",""U14"",""U8"",""U22""]","5","5","0","0","0","0","","2016","","{""confidence_rating"":""Moderately confident""}","confidence_question","[0]","","","","","","","","","walking","Unpredictable","","","","U29","29","1","17","","","","","","","","","","","","","Moderately confident"
"","","","","","video-keyboard-response","94","2.0.0","1006905","70","1","2026-06-08 14:07:30","segmentation_norming_randomized_order_maxrun_attention_v4","75.159.35.253","Mozilla/5.0 (Macintosh; Intel Mac OS X 10_15_7) AppleWebKit/537.36 (KHTML, like Gecko) Chrome/148.0.0.0 Safari/537.36","Macintosh","Chrome","148.0.0.0","OS X","10_15_7","https://uencdihehs.cognition.run/?PROLIFIC_PID=69ebf7ef9b1f438ecd629727&STUDY_ID=6a230fc25d128c9d1b56061a&STUDY_ID=6a230fc25d128c9d1b56061a&SESSION_ID=6a26cc9232399d330febc0da?PROLIFIC_PID=69ebf7ef9b1f438ecd629727&SESSION_ID=6a26cc9232399d330febc0da?","en-US,en;q=0.9","69ebf7ef9b1f438ecd629727","6a230fc25d128c9d1b56061a","6a26cc9232399d330febc0da?","69ebf7ef9b1f438ecd629727","6a230fc25d128c9d1b56061a","6a26cc9232399d330febc0da?","30","[24,23,12,1,25,20,21,16,27,7,15,18,4,3,2,10,29,9,13,28,19,26,6,11,5,30,17,14,8,22]","[""P24"",""P23"",""U12"",""P1"",""P25"",""P20"",""U21"",""U16"",""U27"",""U7"",""P15"",""P18"",""U4"",""P3"",""P2"",""U10"",""U29"",""U9"",""U13"",""U28"",""P19"",""U26"",""U6"",""P11"",""U5"",""U30"",""U17"",""P14"",""P8"",""P22""]","[""U24"",""U23"",""P12"",""U1"",""U25"",""U20"",""P21"",""P16"",""P27"",""P7"",""U15"",""U18"",""P4"",""U3"",""U2"",""P10"",""P29"",""P9"",""P13"",""P28"",""U19"",""P26"",""P6"",""U11"",""P5"",""P30"",""P17"",""U14"",""U8"",""U22""]","5","5","0","0","0","0","","null","[""cereal_v2.mp4""]","null","segmentation_video","","","","","","","","","cereal_v2.mp4","cereal","Unpredictable","[2.08109,12.447154,21.44676,26.908351,30.508006,35.139904]","6","","U9","9","1","18","3.599655000000002","false","false","false","","false","0","0","false","false","false","false",""
