"success","timeout","failed_images","failed_audio","failed_video","trial_type","trial_index","plugin_version","time_elapsed","run_id","condition","recorded_at","source_code_version","ip","user_agent","device","browser","browser_version","platform","platform_version","referer","accept_language","PROLIFIC_PID","STUDY_ID","SESSION_ID","subject_id","study_id","session_id","pair_count","randomized_pair_order","block1_codes","block2_codes","max_run_block1","max_run_block2","fullscreen_exit_count","tab_switch_count","video_attention_failure_count","total_attention_violation_count","view_history","rt","stimulus","response","trial_kind","question_order","spacebar_question_answer","attention_question_answer","spacebar_question_correct","attention_question_correct","instruction_check_passed","demo_index","demo_code","stimulus_file","stimulus_name","predictability","boundary_times_sec","boundary_count","value","video_code","pair_number","block","global_position_in_block","min_press_gap_sec","no_press_failure","rapid_press_failure","video_attention_failed","video_attention_failure_type","last_video_had_any_attention_violation","current_video_fullscreen_exit_count","current_video_tab_switch_count","current_video_had_fullscreen_exit","current_video_had_tab_switch","current_video_had_video_attention_failure","skipped_video_debug","confidence_rating"
"true","false","[]","[]","[]","preload","0","2.0.0","1164","80","1","2026-06-08 14:53:35","segmentation_norming_randomized_order_maxrun_attention_v4","88.97.165.187","Mozilla/5.0 (Windows NT 10.0; Win64; x64) AppleWebKit/537.36 (KHTML, like Gecko) Chrome/149.0.0.0 Safari/537.36","WebKit","Chrome","149.0.0.0","Windows","10.0","https://uencdihehs.cognition.run/?PROLIFIC_PID=6a020761171e2014c686e110&STUDY_ID=6a230fc25d128c9d1b56061a&STUDY_ID=6a230fc25d128c9d1b56061a&SESSION_ID=6a26d6ecf84152d6405839fe?PROLIFIC_PID=6a020761171e2014c686e110&SESSION_ID=6a26d6ecf84152d6405839fe?","en-US,en;q=0.9","6a020761171e2014c686e110","6a230fc25d128c9d1b56061a","6a26d6ecf84152d6405839fe?","6a020761171e2014c686e110","6a230fc25d128c9d1b56061a","6a26d6ecf84152d6405839fe?","30","[5,7,15,11,21,6,1,9,22,10,29,25,12,3,2,19,20,16,14,8,30,17,26,23,24,4,28,27,18,13]","[""U5"",""U7"",""P15"",""P11"",""P21"",""P6"",""U1"",""U9"",""U22"",""P10"",""U29"",""U25"",""U12"",""P3"",""P2"",""P19"",""P20"",""P16"",""U14"",""P8"",""U30"",""U17"",""P26"",""U23"",""P24"",""P4"",""P28"",""P27"",""U18"",""U13""]","[""P5"",""P7"",""U15"",""U11"",""U21"",""U6"",""P1"",""P9"",""P22"",""U10"",""P29"",""P25"",""P12"",""U3"",""U2"",""U19"",""U20"",""U16"",""P14"",""U8"",""P30"",""P17"",""U26"",""P23"",""U24"",""U4"",""U28"",""U27"",""P18"",""P13""]","5","5","0","0","0","0","","","","","","","","","","","","","","","","","","","","","","","","","","","","","","","","","","","",""
"","","","","","instructions","1","2.0.0","75637","80","1","2026-06-08 14:53:35","segmentation_norming_randomized_order_maxrun_attention_v4","88.97.165.187","Mozilla/5.0 (Windows NT 10.0; Win64; x64) AppleWebKit/537.36 (KHTML, like Gecko) Chrome/149.0.0.0 Safari/537.36","WebKit","Chrome","149.0.0.0","Windows","10.0","https://uencdihehs.cognition.run/?PROLIFIC_PID=6a020761171e2014c686e110&STUDY_ID=6a230fc25d128c9d1b56061a&STUDY_ID=6a230fc25d128c9d1b56061a&SESSION_ID=6a26d6ecf84152d6405839fe?PROLIFIC_PID=6a020761171e2014c686e110&SESSION_ID=6a26d6ecf84152d6405839fe?","en-US,en;q=0.9","6a020761171e2014c686e110","6a230fc25d128c9d1b56061a","6a26d6ecf84152d6405839fe?","6a020761171e2014c686e110","6a230fc25d128c9d1b56061a","6a26d6ecf84152d6405839fe?","30","[5,7,15,11,21,6,1,9,22,10,29,25,12,3,2,19,20,16,14,8,30,17,26,23,24,4,28,27,18,13]","[""U5"",""U7"",""P15"",""P11"",""P21"",""P6"",""U1"",""U9"",""U22"",""P10"",""U29"",""U25"",""U12"",""P3"",""P2"",""P19"",""P20"",""P16"",""U14"",""P8"",""U30"",""U17"",""P26"",""U23"",""P24"",""P4"",""P28"",""P27"",""U18"",""U13""]","[""P5"",""P7"",""U15"",""U11"",""U21"",""U6"",""P1"",""P9"",""P22"",""U10"",""P29"",""P25"",""P12"",""U3"",""U2"",""U19"",""U20"",""U16"",""P14"",""U8"",""P30"",""P17"",""U26"",""P23"",""U24"",""U4"",""U28"",""U27"",""P18"",""P13""]","5","5","0","0","0","0","[{""page_index"":0,""viewing_time"":74472}]","74472","","","","","","","","","","","","","","","","","","","","","","","","","","","","","","","","","",""
"true","","","","","fullscreen","2","2.0.0","78785","80","1","2026-06-08 14:53:35","segmentation_norming_randomized_order_maxrun_attention_v4","88.97.165.187","Mozilla/5.0 (Windows NT 10.0; Win64; x64) AppleWebKit/537.36 (KHTML, like Gecko) Chrome/149.0.0.0 Safari/537.36","WebKit","Chrome","149.0.0.0","Windows","10.0","https://uencdihehs.cognition.run/?PROLIFIC_PID=6a020761171e2014c686e110&STUDY_ID=6a230fc25d128c9d1b56061a&STUDY_ID=6a230fc25d128c9d1b56061a&SESSION_ID=6a26d6ecf84152d6405839fe?PROLIFIC_PID=6a020761171e2014c686e110&SESSION_ID=6a26d6ecf84152d6405839fe?","en-US,en;q=0.9","6a020761171e2014c686e110","6a230fc25d128c9d1b56061a","6a26d6ecf84152d6405839fe?","6a020761171e2014c686e110","6a230fc25d128c9d1b56061a","6a26d6ecf84152d6405839fe?","30","[5,7,15,11,21,6,1,9,22,10,29,25,12,3,2,19,20,16,14,8,30,17,26,23,24,4,28,27,18,13]","[""U5"",""U7"",""P15"",""P11"",""P21"",""P6"",""U1"",""U9"",""U22"",""P10"",""U29"",""U25"",""U12"",""P3"",""P2"",""P19"",""P20"",""P16"",""U14"",""P8"",""U30"",""U17"",""P26"",""U23"",""P24"",""P4"",""P28"",""P27"",""U18"",""U13""]","[""P5"",""P7"",""U15"",""U11"",""U21"",""U6"",""P1"",""P9"",""P22"",""U10"",""P29"",""P25"",""P12"",""U3"",""U2"",""U19"",""U20"",""U16"",""P14"",""U8"",""P30"",""P17"",""U26"",""P23"",""U24"",""U4"",""U28"",""U27"",""P18"",""P13""]","5","5","0","0","0","0","","2146","","","","","","","","","","","","","","","","","","","","","","","","","","","","","","","","","",""
"","","","","","html-button-response","3","2.0.0","100956","80","1","2026-06-08 14:53:35","segmentation_norming_randomized_order_maxrun_attention_v4","88.97.165.187","Mozilla/5.0 (Windows NT 10.0; Win64; x64) AppleWebKit/537.36 (KHTML, like Gecko) Chrome/149.0.0.0 Safari/537.36","WebKit","Chrome","149.0.0.0","Windows","10.0","https://uencdihehs.cognition.run/?PROLIFIC_PID=6a020761171e2014c686e110&STUDY_ID=6a230fc25d128c9d1b56061a&STUDY_ID=6a230fc25d128c9d1b56061a&SESSION_ID=6a26d6ecf84152d6405839fe?PROLIFIC_PID=6a020761171e2014c686e110&SESSION_ID=6a26d6ecf84152d6405839fe?","en-US,en;q=0.9","6a020761171e2014c686e110","6a230fc25d128c9d1b56061a","6a26d6ecf84152d6405839fe?","6a020761171e2014c686e110","6a230fc25d128c9d1b56061a","6a26d6ecf84152d6405839fe?","30","[5,7,15,11,21,6,1,9,22,10,29,25,12,3,2,19,20,16,14,8,30,17,26,23,24,4,28,27,18,13]","[""U5"",""U7"",""P15"",""P11"",""P21"",""P6"",""U1"",""U9"",""U22"",""P10"",""U29"",""U25"",""U12"",""P3"",""P2"",""P19"",""P20"",""P16"",""U14"",""P8"",""U30"",""U17"",""P26"",""U23"",""P24"",""P4"",""P28"",""P27"",""U18"",""U13""]","[""P5"",""P7"",""U15"",""U11"",""U21"",""U6"",""P1"",""P9"",""P22"",""U10"",""P29"",""P25"",""P12"",""U3"",""U2"",""U19"",""U20"",""U16"",""P14"",""U8"",""P30"",""P17"",""U26"",""P23"",""U24"",""U4"",""U28"",""U27"",""P18"",""P13""]","5","5","0","0","0","0","","22170","The experiment requires continuous attention and full-screen participation throughout the task.<br><br>You may be asked to exit the experiment and cancel your participation if you exit Full Screen Mode, switch tabs, or fail to meet the attention criteria more than the allowed number of times.<br><br>Please read the following instructions carefully.","0","","","","","","","","","","","","","","","","","","","","","","","","","","","","","","","",""
"","","","","","instructions","4","2.0.0","205470","80","1","2026-06-08 14:53:35","segmentation_norming_randomized_order_maxrun_attention_v4","88.97.165.187","Mozilla/5.0 (Windows NT 10.0; Win64; x64) AppleWebKit/537.36 (KHTML, like Gecko) Chrome/149.0.0.0 Safari/537.36","WebKit","Chrome","149.0.0.0","Windows","10.0","https://uencdihehs.cognition.run/?PROLIFIC_PID=6a020761171e2014c686e110&STUDY_ID=6a230fc25d128c9d1b56061a&STUDY_ID=6a230fc25d128c9d1b56061a&SESSION_ID=6a26d6ecf84152d6405839fe?PROLIFIC_PID=6a020761171e2014c686e110&SESSION_ID=6a26d6ecf84152d6405839fe?","en-US,en;q=0.9","6a020761171e2014c686e110","6a230fc25d128c9d1b56061a","6a26d6ecf84152d6405839fe?","6a020761171e2014c686e110","6a230fc25d128c9d1b56061a","6a26d6ecf84152d6405839fe?","30","[5,7,15,11,21,6,1,9,22,10,29,25,12,3,2,19,20,16,14,8,30,17,26,23,24,4,28,27,18,13]","[""U5"",""U7"",""P15"",""P11"",""P21"",""P6"",""U1"",""U9"",""U22"",""P10"",""U29"",""U25"",""U12"",""P3"",""P2"",""P19"",""P20"",""P16"",""U14"",""P8"",""U30"",""U17"",""P26"",""U23"",""P24"",""P4"",""P28"",""P27"",""U18"",""U13""]","[""P5"",""P7"",""U15"",""U11"",""U21"",""U6"",""P1"",""P9"",""P22"",""U10"",""P29"",""P25"",""P12"",""U3"",""U2"",""U19"",""U20"",""U16"",""P14"",""U8"",""P30"",""P17"",""U26"",""P23"",""U24"",""U4"",""U28"",""U27"",""P18"",""P13""]","5","5","0","0","0","0","[{""page_index"":0,""viewing_time"":104513}]","104513","","","","","","","","","","","","","","","","","","","","","","","","","","","","","","","","","",""
"","","","","","html-button-response","5","2.0.0","211004","80","1","2026-06-08 14:53:35","segmentation_norming_randomized_order_maxrun_attention_v4","88.97.165.187","Mozilla/5.0 (Windows NT 10.0; Win64; x64) AppleWebKit/537.36 (KHTML, like Gecko) Chrome/149.0.0.0 Safari/537.36","WebKit","Chrome","149.0.0.0","Windows","10.0","https://uencdihehs.cognition.run/?PROLIFIC_PID=6a020761171e2014c686e110&STUDY_ID=6a230fc25d128c9d1b56061a&STUDY_ID=6a230fc25d128c9d1b56061a&SESSION_ID=6a26d6ecf84152d6405839fe?PROLIFIC_PID=6a020761171e2014c686e110&SESSION_ID=6a26d6ecf84152d6405839fe?","en-US,en;q=0.9","6a020761171e2014c686e110","6a230fc25d128c9d1b56061a","6a26d6ecf84152d6405839fe?","6a020761171e2014c686e110","6a230fc25d128c9d1b56061a","6a26d6ecf84152d6405839fe?","30","[5,7,15,11,21,6,1,9,22,10,29,25,12,3,2,19,20,16,14,8,30,17,26,23,24,4,28,27,18,13]","[""U5"",""U7"",""P15"",""P11"",""P21"",""P6"",""U1"",""U9"",""U22"",""P10"",""U29"",""U25"",""U12"",""P3"",""P2"",""P19"",""P20"",""P16"",""U14"",""P8"",""U30"",""U17"",""P26"",""U23"",""P24"",""P4"",""P28"",""P27"",""U18"",""U13""]","[""P5"",""P7"",""U15"",""U11"",""U21"",""U6"",""P1"",""P9"",""P22"",""U10"",""P29"",""P25"",""P12"",""U3"",""U2"",""U19"",""U20"",""U16"",""P14"",""U8"",""P30"",""P17"",""U26"",""P23"",""U24"",""U4"",""U28"",""U27"",""P18"",""P13""]","5","5","0","0","0","0","","5534","Please pay attention when watching videos and marking boundaries.<br><br>There are several hidden attention criteria to make sure you watch the videos carefully.<br><br>If you fail these hidden criteria more than the allowed number of times, you may be asked to exit the experiment.","0","","","","","","","","","","","","","","","","","","","","","","","","","","","","","","","",""
"","","","","","survey-multi-choice","6","2.0.0","220675","80","1","2026-06-08 14:53:35","segmentation_norming_randomized_order_maxrun_attention_v4","88.97.165.187","Mozilla/5.0 (Windows NT 10.0; Win64; x64) AppleWebKit/537.36 (KHTML, like Gecko) Chrome/149.0.0.0 Safari/537.36","WebKit","Chrome","149.0.0.0","Windows","10.0","https://uencdihehs.cognition.run/?PROLIFIC_PID=6a020761171e2014c686e110&STUDY_ID=6a230fc25d128c9d1b56061a&STUDY_ID=6a230fc25d128c9d1b56061a&SESSION_ID=6a26d6ecf84152d6405839fe?PROLIFIC_PID=6a020761171e2014c686e110&SESSION_ID=6a26d6ecf84152d6405839fe?","en-US,en;q=0.9","6a020761171e2014c686e110","6a230fc25d128c9d1b56061a","6a26d6ecf84152d6405839fe?","6a020761171e2014c686e110","6a230fc25d128c9d1b56061a","6a26d6ecf84152d6405839fe?","30","[5,7,15,11,21,6,1,9,22,10,29,25,12,3,2,19,20,16,14,8,30,17,26,23,24,4,28,27,18,13]","[""U5"",""U7"",""P15"",""P11"",""P21"",""P6"",""U1"",""U9"",""U22"",""P10"",""U29"",""U25"",""U12"",""P3"",""P2"",""P19"",""P20"",""P16"",""U14"",""P8"",""U30"",""U17"",""P26"",""U23"",""P24"",""P4"",""P28"",""P27"",""U18"",""U13""]","[""P5"",""P7"",""U15"",""U11"",""U21"",""U6"",""P1"",""P9"",""P22"",""U10"",""P29"",""P25"",""P12"",""U3"",""U2"",""U19"",""U20"",""U16"",""P14"",""U8"",""P30"",""P17"",""U26"",""P23"",""U24"",""U4"",""U28"",""U27"",""P18"",""P13""]","5","5","0","0","0","0","","9669","","{""spacebar_question"":""Between the smallest meaningful events or actions"",""attention_question"":""Press space bar to segment the video""}","comprehension_check","[0,1]","Between the smallest meaningful events or actions","Press space bar to segment the video","true","true","true","","","","","","","","","","","","","","","","","","","","","","","","",""
"","","","","","html-button-response","8","2.0.0","237275","80","1","2026-06-08 14:53:35","segmentation_norming_randomized_order_maxrun_attention_v4","88.97.165.187","Mozilla/5.0 (Windows NT 10.0; Win64; x64) AppleWebKit/537.36 (KHTML, like Gecko) Chrome/149.0.0.0 Safari/537.36","WebKit","Chrome","149.0.0.0","Windows","10.0","https://uencdihehs.cognition.run/?PROLIFIC_PID=6a020761171e2014c686e110&STUDY_ID=6a230fc25d128c9d1b56061a&STUDY_ID=6a230fc25d128c9d1b56061a&SESSION_ID=6a26d6ecf84152d6405839fe?PROLIFIC_PID=6a020761171e2014c686e110&SESSION_ID=6a26d6ecf84152d6405839fe?","en-US,en;q=0.9","6a020761171e2014c686e110","6a230fc25d128c9d1b56061a","6a26d6ecf84152d6405839fe?","6a020761171e2014c686e110","6a230fc25d128c9d1b56061a","6a26d6ecf84152d6405839fe?","30","[5,7,15,11,21,6,1,9,22,10,29,25,12,3,2,19,20,16,14,8,30,17,26,23,24,4,28,27,18,13]","[""U5"",""U7"",""P15"",""P11"",""P21"",""P6"",""U1"",""U9"",""U22"",""P10"",""U29"",""U25"",""U12"",""P3"",""P2"",""P19"",""P20"",""P16"",""U14"",""P8"",""U30"",""U17"",""P26"",""U23"",""P24"",""P4"",""P28"",""P27"",""U18"",""U13""]","[""P5"",""P7"",""U15"",""U11"",""U21"",""U6"",""P1"",""P9"",""P22"",""U10"",""P29"",""P25"",""P12"",""U3"",""U2"",""U19"",""U20"",""U16"",""P14"",""U8"",""P30"",""P17"",""U26"",""P23"",""U24"",""U4"",""U28"",""U27"",""P18"",""P13""]","5","5","0","0","0","0","","16599","You have learned the instructions for the task! Here is a demo trial.<br><br>Like what you will do in the main experiment,<br><br> you will watch a movie clip and at the same time mark off the activity in the movie into the <strong>smallest meaningful units</strong> that seem natural and meaningful to you.<br><br>Remember, tap the <strong>SPACE BAR</strong> to mark off a boundary between two <strong>smallest meaningful units</strong> of activity.<br><br>A green bar will appear at the bottom of the screen when you press the button.<br><br>","0","","","","","","","","","","","","","","","","","","","","","","","","","","","","","","","",""
"","","","","","video-keyboard-response","9","2.0.0","253521","80","1","2026-06-08 14:53:35","segmentation_norming_randomized_order_maxrun_attention_v4","88.97.165.187","Mozilla/5.0 (Windows NT 10.0; Win64; x64) AppleWebKit/537.36 (KHTML, like Gecko) Chrome/149.0.0.0 Safari/537.36","WebKit","Chrome","149.0.0.0","Windows","10.0","https://uencdihehs.cognition.run/?PROLIFIC_PID=6a020761171e2014c686e110&STUDY_ID=6a230fc25d128c9d1b56061a&STUDY_ID=6a230fc25d128c9d1b56061a&SESSION_ID=6a26d6ecf84152d6405839fe?PROLIFIC_PID=6a020761171e2014c686e110&SESSION_ID=6a26d6ecf84152d6405839fe?","en-US,en;q=0.9","6a020761171e2014c686e110","6a230fc25d128c9d1b56061a","6a26d6ecf84152d6405839fe?","6a020761171e2014c686e110","6a230fc25d128c9d1b56061a","6a26d6ecf84152d6405839fe?","30","[5,7,15,11,21,6,1,9,22,10,29,25,12,3,2,19,20,16,14,8,30,17,26,23,24,4,28,27,18,13]","[""U5"",""U7"",""P15"",""P11"",""P21"",""P6"",""U1"",""U9"",""U22"",""P10"",""U29"",""U25"",""U12"",""P3"",""P2"",""P19"",""P20"",""P16"",""U14"",""P8"",""U30"",""U17"",""P26"",""U23"",""P24"",""P4"",""P28"",""P27"",""U18"",""U13""]","[""P5"",""P7"",""U15"",""U11"",""U21"",""U6"",""P1"",""P9"",""P22"",""U10"",""P29"",""P25"",""P12"",""U3"",""U2"",""U19"",""U20"",""U16"",""P14"",""U8"",""P30"",""P17"",""U26"",""P23"",""U24"",""U4"",""U28"",""U27"",""P18"",""P13""]","5","5","0","0","0","0","","null","[""library_v1.mp4""]","null","demo_video","","","","","","","1","demo1","library_v1.mp4","library","Demo","[]","0","","","","","","","","","","","","","","","","","",""
"","","","","","call-function","10","2.0.0","253521","80","1","2026-06-08 14:53:35","segmentation_norming_randomized_order_maxrun_attention_v4","88.97.165.187","Mozilla/5.0 (Windows NT 10.0; Win64; x64) AppleWebKit/537.36 (KHTML, like Gecko) Chrome/149.0.0.0 Safari/537.36","WebKit","Chrome","149.0.0.0","Windows","10.0","https://uencdihehs.cognition.run/?PROLIFIC_PID=6a020761171e2014c686e110&STUDY_ID=6a230fc25d128c9d1b56061a&STUDY_ID=6a230fc25d128c9d1b56061a&SESSION_ID=6a26d6ecf84152d6405839fe?PROLIFIC_PID=6a020761171e2014c686e110&SESSION_ID=6a26d6ecf84152d6405839fe?","en-US,en;q=0.9","6a020761171e2014c686e110","6a230fc25d128c9d1b56061a","6a26d6ecf84152d6405839fe?","6a020761171e2014c686e110","6a230fc25d128c9d1b56061a","6a26d6ecf84152d6405839fe?","30","[5,7,15,11,21,6,1,9,22,10,29,25,12,3,2,19,20,16,14,8,30,17,26,23,24,4,28,27,18,13]","[""U5"",""U7"",""P15"",""P11"",""P21"",""P6"",""U1"",""U9"",""U22"",""P10"",""U29"",""U25"",""U12"",""P3"",""P2"",""P19"",""P20"",""P16"",""U14"",""P8"",""U30"",""U17"",""P26"",""U23"",""P24"",""P4"",""P28"",""P27"",""U18"",""U13""]","[""P5"",""P7"",""U15"",""U11"",""U21"",""U6"",""P1"",""P9"",""P22"",""U10"",""P29"",""P25"",""P12"",""U3"",""U2"",""U19"",""U20"",""U16"",""P14"",""U8"",""P30"",""P17"",""U26"",""P23"",""U24"",""U4"",""U28"",""U27"",""P18"",""P13""]","5","5","0","0","0","0","","","","","","","","","","","","","","","","","","","","","","","","","","","","","","","","","","","",""
"","","","","","html-button-response","11","2.0.0","261014","80","1","2026-06-08 14:53:35","segmentation_norming_randomized_order_maxrun_attention_v4","88.97.165.187","Mozilla/5.0 (Windows NT 10.0; Win64; x64) AppleWebKit/537.36 (KHTML, like Gecko) Chrome/149.0.0.0 Safari/537.36","WebKit","Chrome","149.0.0.0","Windows","10.0","https://uencdihehs.cognition.run/?PROLIFIC_PID=6a020761171e2014c686e110&STUDY_ID=6a230fc25d128c9d1b56061a&STUDY_ID=6a230fc25d128c9d1b56061a&SESSION_ID=6a26d6ecf84152d6405839fe?PROLIFIC_PID=6a020761171e2014c686e110&SESSION_ID=6a26d6ecf84152d6405839fe?","en-US,en;q=0.9","6a020761171e2014c686e110","6a230fc25d128c9d1b56061a","6a26d6ecf84152d6405839fe?","6a020761171e2014c686e110","6a230fc25d128c9d1b56061a","6a26d6ecf84152d6405839fe?","30","[5,7,15,11,21,6,1,9,22,10,29,25,12,3,2,19,20,16,14,8,30,17,26,23,24,4,28,27,18,13]","[""U5"",""U7"",""P15"",""P11"",""P21"",""P6"",""U1"",""U9"",""U22"",""P10"",""U29"",""U25"",""U12"",""P3"",""P2"",""P19"",""P20"",""P16"",""U14"",""P8"",""U30"",""U17"",""P26"",""U23"",""P24"",""P4"",""P28"",""P27"",""U18"",""U13""]","[""P5"",""P7"",""U15"",""U11"",""U21"",""U6"",""P1"",""P9"",""P22"",""U10"",""P29"",""P25"",""P12"",""U3"",""U2"",""U19"",""U20"",""U16"",""P14"",""U8"",""P30"",""P17"",""U26"",""P23"",""U24"",""U4"",""U28"",""U27"",""P18"",""P13""]","5","5","0","0","0","0","","7492","Usually people tend to press the button more times than you did.<br><br>As a reminder, press the <strong>SPACE BAR</strong> whenever one <strong>smallest meaningful unit</strong> of activity ends and another begins.<br><br>Let's try another demo trial.<br><br>","0","demo_feedback","","","","","","","","","","","","","","","","","","","","","","","","","","","","","","",""
"","","","","","video-keyboard-response","12","2.0.0","296541","80","1","2026-06-08 14:53:35","segmentation_norming_randomized_order_maxrun_attention_v4","88.97.165.187","Mozilla/5.0 (Windows NT 10.0; Win64; x64) AppleWebKit/537.36 (KHTML, like Gecko) Chrome/149.0.0.0 Safari/537.36","WebKit","Chrome","149.0.0.0","Windows","10.0","https://uencdihehs.cognition.run/?PROLIFIC_PID=6a020761171e2014c686e110&STUDY_ID=6a230fc25d128c9d1b56061a&STUDY_ID=6a230fc25d128c9d1b56061a&SESSION_ID=6a26d6ecf84152d6405839fe?PROLIFIC_PID=6a020761171e2014c686e110&SESSION_ID=6a26d6ecf84152d6405839fe?","en-US,en;q=0.9","6a020761171e2014c686e110","6a230fc25d128c9d1b56061a","6a26d6ecf84152d6405839fe?","6a020761171e2014c686e110","6a230fc25d128c9d1b56061a","6a26d6ecf84152d6405839fe?","30","[5,7,15,11,21,6,1,9,22,10,29,25,12,3,2,19,20,16,14,8,30,17,26,23,24,4,28,27,18,13]","[""U5"",""U7"",""P15"",""P11"",""P21"",""P6"",""U1"",""U9"",""U22"",""P10"",""U29"",""U25"",""U12"",""P3"",""P2"",""P19"",""P20"",""P16"",""U14"",""P8"",""U30"",""U17"",""P26"",""U23"",""P24"",""P4"",""P28"",""P27"",""U18"",""U13""]","[""P5"",""P7"",""U15"",""U11"",""U21"",""U6"",""P1"",""P9"",""P22"",""U10"",""P29"",""P25"",""P12"",""U3"",""U2"",""U19"",""U20"",""U16"",""P14"",""U8"",""P30"",""P17"",""U26"",""P23"",""U24"",""U4"",""U28"",""U27"",""P18"",""P13""]","5","5","0","0","0","0","","null","[""garden_v1.mp4""]","null","demo_video","","","","","","","2","demo2","garden_v1.mp4","garden","Demo","[1.242313,2.404222,3.5662,4.875204,5.886284,6.657226,9.53948,11.813626,13.286362,14.752369,16.553577,18.430464,20.039483,21.624531,22.851806,23.951647,25.020592,26.016668,26.643064,27.133651,28.655793,29.573696,31.074781,32.770804,33.856077]","25","","","","","","","","","","","","","","","","","",""
"","","","","","call-function","13","2.0.0","296541","80","1","2026-06-08 14:53:35","segmentation_norming_randomized_order_maxrun_attention_v4","88.97.165.187","Mozilla/5.0 (Windows NT 10.0; Win64; x64) AppleWebKit/537.36 (KHTML, like Gecko) Chrome/149.0.0.0 Safari/537.36","WebKit","Chrome","149.0.0.0","Windows","10.0","https://uencdihehs.cognition.run/?PROLIFIC_PID=6a020761171e2014c686e110&STUDY_ID=6a230fc25d128c9d1b56061a&STUDY_ID=6a230fc25d128c9d1b56061a&SESSION_ID=6a26d6ecf84152d6405839fe?PROLIFIC_PID=6a020761171e2014c686e110&SESSION_ID=6a26d6ecf84152d6405839fe?","en-US,en;q=0.9","6a020761171e2014c686e110","6a230fc25d128c9d1b56061a","6a26d6ecf84152d6405839fe?","6a020761171e2014c686e110","6a230fc25d128c9d1b56061a","6a26d6ecf84152d6405839fe?","30","[5,7,15,11,21,6,1,9,22,10,29,25,12,3,2,19,20,16,14,8,30,17,26,23,24,4,28,27,18,13]","[""U5"",""U7"",""P15"",""P11"",""P21"",""P6"",""U1"",""U9"",""U22"",""P10"",""U29"",""U25"",""U12"",""P3"",""P2"",""P19"",""P20"",""P16"",""U14"",""P8"",""U30"",""U17"",""P26"",""U23"",""P24"",""P4"",""P28"",""P27"",""U18"",""U13""]","[""P5"",""P7"",""U15"",""U11"",""U21"",""U6"",""P1"",""P9"",""P22"",""U10"",""P29"",""P25"",""P12"",""U3"",""U2"",""U19"",""U20"",""U16"",""P14"",""U8"",""P30"",""P17"",""U26"",""P23"",""U24"",""U4"",""U28"",""U27"",""P18"",""P13""]","5","5","0","0","0","0","","","","","","","","","","","","","","","","","","","","","","","","","","","","","","","","","","","",""
"","","","","","html-button-response","14","2.0.0","306510","80","1","2026-06-08 14:53:35","segmentation_norming_randomized_order_maxrun_attention_v4","88.97.165.187","Mozilla/5.0 (Windows NT 10.0; Win64; x64) AppleWebKit/537.36 (KHTML, like Gecko) Chrome/149.0.0.0 Safari/537.36","WebKit","Chrome","149.0.0.0","Windows","10.0","https://uencdihehs.cognition.run/?PROLIFIC_PID=6a020761171e2014c686e110&STUDY_ID=6a230fc25d128c9d1b56061a&STUDY_ID=6a230fc25d128c9d1b56061a&SESSION_ID=6a26d6ecf84152d6405839fe?PROLIFIC_PID=6a020761171e2014c686e110&SESSION_ID=6a26d6ecf84152d6405839fe?","en-US,en;q=0.9","6a020761171e2014c686e110","6a230fc25d128c9d1b56061a","6a26d6ecf84152d6405839fe?","6a020761171e2014c686e110","6a230fc25d128c9d1b56061a","6a26d6ecf84152d6405839fe?","30","[5,7,15,11,21,6,1,9,22,10,29,25,12,3,2,19,20,16,14,8,30,17,26,23,24,4,28,27,18,13]","[""U5"",""U7"",""P15"",""P11"",""P21"",""P6"",""U1"",""U9"",""U22"",""P10"",""U29"",""U25"",""U12"",""P3"",""P2"",""P19"",""P20"",""P16"",""U14"",""P8"",""U30"",""U17"",""P26"",""U23"",""P24"",""P4"",""P28"",""P27"",""U18"",""U13""]","[""P5"",""P7"",""U15"",""U11"",""U21"",""U6"",""P1"",""P9"",""P22"",""U10"",""P29"",""P25"",""P12"",""U3"",""U2"",""U19"",""U20"",""U16"",""P14"",""U8"",""P30"",""P17"",""U26"",""P23"",""U24"",""U4"",""U28"",""U27"",""P18"",""P13""]","5","5","0","0","0","0","","9969","Usually people tend to press the button fewer times than you did.<br><br>As a reminder, press the <strong>SPACE BAR</strong> whenever one <strong>smallest meaningful unit</strong> of activity ends and another begins.<br><br>Let's try another demo trial.<br><br>","0","demo_feedback","","","","","","","","","","","","","","","","","","","","","","","","","","","","","","",""
"","","","","","video-keyboard-response","15","2.0.0","330921","80","1","2026-06-08 14:53:35","segmentation_norming_randomized_order_maxrun_attention_v4","88.97.165.187","Mozilla/5.0 (Windows NT 10.0; Win64; x64) AppleWebKit/537.36 (KHTML, like Gecko) Chrome/149.0.0.0 Safari/537.36","WebKit","Chrome","149.0.0.0","Windows","10.0","https://uencdihehs.cognition.run/?PROLIFIC_PID=6a020761171e2014c686e110&STUDY_ID=6a230fc25d128c9d1b56061a&STUDY_ID=6a230fc25d128c9d1b56061a&SESSION_ID=6a26d6ecf84152d6405839fe?PROLIFIC_PID=6a020761171e2014c686e110&SESSION_ID=6a26d6ecf84152d6405839fe?","en-US,en;q=0.9","6a020761171e2014c686e110","6a230fc25d128c9d1b56061a","6a26d6ecf84152d6405839fe?","6a020761171e2014c686e110","6a230fc25d128c9d1b56061a","6a26d6ecf84152d6405839fe?","30","[5,7,15,11,21,6,1,9,22,10,29,25,12,3,2,19,20,16,14,8,30,17,26,23,24,4,28,27,18,13]","[""U5"",""U7"",""P15"",""P11"",""P21"",""P6"",""U1"",""U9"",""U22"",""P10"",""U29"",""U25"",""U12"",""P3"",""P2"",""P19"",""P20"",""P16"",""U14"",""P8"",""U30"",""U17"",""P26"",""U23"",""P24"",""P4"",""P28"",""P27"",""U18"",""U13""]","[""P5"",""P7"",""U15"",""U11"",""U21"",""U6"",""P1"",""P9"",""P22"",""U10"",""P29"",""P25"",""P12"",""U3"",""U2"",""U19"",""U20"",""U16"",""P14"",""U8"",""P30"",""P17"",""U26"",""P23"",""U24"",""U4"",""U28"",""U27"",""P18"",""P13""]","5","5","0","0","0","0","","null","[""vending_v1.mp4""]","null","demo_video","","","","","","","3","demo3","vending_v1.mp4","vending","Demo","[35.413313,2.046199,35.413313,4.914154,35.413313,8.947264,35.413313,12.030565,35.413313,15.458358,35.413313,18.101369,35.413313,23.212808]","14","","","","","","","","","","","","","","","","","",""
"","","","","","call-function","16","2.0.0","330921","80","1","2026-06-08 14:53:35","segmentation_norming_randomized_order_maxrun_attention_v4","88.97.165.187","Mozilla/5.0 (Windows NT 10.0; Win64; x64) AppleWebKit/537.36 (KHTML, like Gecko) Chrome/149.0.0.0 Safari/537.36","WebKit","Chrome","149.0.0.0","Windows","10.0","https://uencdihehs.cognition.run/?PROLIFIC_PID=6a020761171e2014c686e110&STUDY_ID=6a230fc25d128c9d1b56061a&STUDY_ID=6a230fc25d128c9d1b56061a&SESSION_ID=6a26d6ecf84152d6405839fe?PROLIFIC_PID=6a020761171e2014c686e110&SESSION_ID=6a26d6ecf84152d6405839fe?","en-US,en;q=0.9","6a020761171e2014c686e110","6a230fc25d128c9d1b56061a","6a26d6ecf84152d6405839fe?","6a020761171e2014c686e110","6a230fc25d128c9d1b56061a","6a26d6ecf84152d6405839fe?","30","[5,7,15,11,21,6,1,9,22,10,29,25,12,3,2,19,20,16,14,8,30,17,26,23,24,4,28,27,18,13]","[""U5"",""U7"",""P15"",""P11"",""P21"",""P6"",""U1"",""U9"",""U22"",""P10"",""U29"",""U25"",""U12"",""P3"",""P2"",""P19"",""P20"",""P16"",""U14"",""P8"",""U30"",""U17"",""P26"",""U23"",""P24"",""P4"",""P28"",""P27"",""U18"",""U13""]","[""P5"",""P7"",""U15"",""U11"",""U21"",""U6"",""P1"",""P9"",""P22"",""U10"",""P29"",""P25"",""P12"",""U3"",""U2"",""U19"",""U20"",""U16"",""P14"",""U8"",""P30"",""P17"",""U26"",""P23"",""U24"",""U4"",""U28"",""U27"",""P18"",""P13""]","5","5","0","0","0","0","","","","","","","","","","","","","","","","","","","","","","","","","","","","","","","","","","","",""
"","","","","","html-button-response","17","2.0.0","341049","80","1","2026-06-08 14:53:35","segmentation_norming_randomized_order_maxrun_attention_v4","88.97.165.187","Mozilla/5.0 (Windows NT 10.0; Win64; x64) AppleWebKit/537.36 (KHTML, like Gecko) Chrome/149.0.0.0 Safari/537.36","WebKit","Chrome","149.0.0.0","Windows","10.0","https://uencdihehs.cognition.run/?PROLIFIC_PID=6a020761171e2014c686e110&STUDY_ID=6a230fc25d128c9d1b56061a&STUDY_ID=6a230fc25d128c9d1b56061a&SESSION_ID=6a26d6ecf84152d6405839fe?PROLIFIC_PID=6a020761171e2014c686e110&SESSION_ID=6a26d6ecf84152d6405839fe?","en-US,en;q=0.9","6a020761171e2014c686e110","6a230fc25d128c9d1b56061a","6a26d6ecf84152d6405839fe?","6a020761171e2014c686e110","6a230fc25d128c9d1b56061a","6a26d6ecf84152d6405839fe?","30","[5,7,15,11,21,6,1,9,22,10,29,25,12,3,2,19,20,16,14,8,30,17,26,23,24,4,28,27,18,13]","[""U5"",""U7"",""P15"",""P11"",""P21"",""P6"",""U1"",""U9"",""U22"",""P10"",""U29"",""U25"",""U12"",""P3"",""P2"",""P19"",""P20"",""P16"",""U14"",""P8"",""U30"",""U17"",""P26"",""U23"",""P24"",""P4"",""P28"",""P27"",""U18"",""U13""]","[""P5"",""P7"",""U15"",""U11"",""U21"",""U6"",""P1"",""P9"",""P22"",""U10"",""P29"",""P25"",""P12"",""U3"",""U2"",""U19"",""U20"",""U16"",""P14"",""U8"",""P30"",""P17"",""U26"",""P23"",""U24"",""U4"",""U28"",""U27"",""P18"",""P13""]","5","5","0","0","0","0","","10128","Great! Hopefully you got an idea of what a meaningful unit is.<br><br>Remember that there is no right or wrong answer.<br><br>We just want to know which parts of the activity seem natural and meaningful to you.<br><br>Now the main experiment starts.<br><br>For each clip, while watching, remember to press the SPACE BAR whenever one <strong>smallest meaningful unit</strong> of activity ends and another begins.<br><br>","0","demo_feedback","","","","","","","","","","","","","","","","","","","","","","","","","","","","","","",""
"true","false","[]","[]","[]","preload","18","2.0.0","349235","80","1","2026-06-08 14:53:35","segmentation_norming_randomized_order_maxrun_attention_v4","88.97.165.187","Mozilla/5.0 (Windows NT 10.0; Win64; x64) AppleWebKit/537.36 (KHTML, like Gecko) Chrome/149.0.0.0 Safari/537.36","WebKit","Chrome","149.0.0.0","Windows","10.0","https://uencdihehs.cognition.run/?PROLIFIC_PID=6a020761171e2014c686e110&STUDY_ID=6a230fc25d128c9d1b56061a&STUDY_ID=6a230fc25d128c9d1b56061a&SESSION_ID=6a26d6ecf84152d6405839fe?PROLIFIC_PID=6a020761171e2014c686e110&SESSION_ID=6a26d6ecf84152d6405839fe?","en-US,en;q=0.9","6a020761171e2014c686e110","6a230fc25d128c9d1b56061a","6a26d6ecf84152d6405839fe?","6a020761171e2014c686e110","6a230fc25d128c9d1b56061a","6a26d6ecf84152d6405839fe?","30","[5,7,15,11,21,6,1,9,22,10,29,25,12,3,2,19,20,16,14,8,30,17,26,23,24,4,28,27,18,13]","[""U5"",""U7"",""P15"",""P11"",""P21"",""P6"",""U1"",""U9"",""U22"",""P10"",""U29"",""U25"",""U12"",""P3"",""P2"",""P19"",""P20"",""P16"",""U14"",""P8"",""U30"",""U17"",""P26"",""U23"",""P24"",""P4"",""P28"",""P27"",""U18"",""U13""]","[""P5"",""P7"",""U15"",""U11"",""U21"",""U6"",""P1"",""P9"",""P22"",""U10"",""P29"",""P25"",""P12"",""U3"",""U2"",""U19"",""U20"",""U16"",""P14"",""U8"",""P30"",""P17"",""U26"",""P23"",""U24"",""U4"",""U28"",""U27"",""P18"",""P13""]","5","5","0","0","0","0","","","","","","","","","","","","","","","","","","","","","","","","","","","","","","","","","","","",""
"","","","","","video-keyboard-response","19","2.0.0","376091","80","1","2026-06-08 14:53:35","segmentation_norming_randomized_order_maxrun_attention_v4","88.97.165.187","Mozilla/5.0 (Windows NT 10.0; Win64; x64) AppleWebKit/537.36 (KHTML, like Gecko) Chrome/149.0.0.0 Safari/537.36","WebKit","Chrome","149.0.0.0","Windows","10.0","https://uencdihehs.cognition.run/?PROLIFIC_PID=6a020761171e2014c686e110&STUDY_ID=6a230fc25d128c9d1b56061a&STUDY_ID=6a230fc25d128c9d1b56061a&SESSION_ID=6a26d6ecf84152d6405839fe?PROLIFIC_PID=6a020761171e2014c686e110&SESSION_ID=6a26d6ecf84152d6405839fe?","en-US,en;q=0.9","6a020761171e2014c686e110","6a230fc25d128c9d1b56061a","6a26d6ecf84152d6405839fe?","6a020761171e2014c686e110","6a230fc25d128c9d1b56061a","6a26d6ecf84152d6405839fe?","30","[5,7,15,11,21,6,1,9,22,10,29,25,12,3,2,19,20,16,14,8,30,17,26,23,24,4,28,27,18,13]","[""U5"",""U7"",""P15"",""P11"",""P21"",""P6"",""U1"",""U9"",""U22"",""P10"",""U29"",""U25"",""U12"",""P3"",""P2"",""P19"",""P20"",""P16"",""U14"",""P8"",""U30"",""U17"",""P26"",""U23"",""P24"",""P4"",""P28"",""P27"",""U18"",""U13""]","[""P5"",""P7"",""U15"",""U11"",""U21"",""U6"",""P1"",""P9"",""P22"",""U10"",""P29"",""P25"",""P12"",""U3"",""U2"",""U19"",""U20"",""U16"",""P14"",""U8"",""P30"",""P17"",""U26"",""P23"",""U24"",""U4"",""U28"",""U27"",""P18"",""P13""]","5","5","0","0","0","0","","null","[""beach_v2.mp4""]","null","segmentation_video","","","","","","","","","beach_v2.mp4","beach","Unpredictable","[1.551939,4.148208,7.902137,11.070132,14.929595,20.153301,25.073648]","7","","U5","5","1","1","2.5962690000000004","false","false","false","","false","0","0","false","false","false","false",""
"","","","","","survey-multi-choice","22","2.0.0","382591","80","1","2026-06-08 14:53:35","segmentation_norming_randomized_order_maxrun_attention_v4","88.97.165.187","Mozilla/5.0 (Windows NT 10.0; Win64; x64) AppleWebKit/537.36 (KHTML, like Gecko) Chrome/149.0.0.0 Safari/537.36","WebKit","Chrome","149.0.0.0","Windows","10.0","https://uencdihehs.cognition.run/?PROLIFIC_PID=6a020761171e2014c686e110&STUDY_ID=6a230fc25d128c9d1b56061a&STUDY_ID=6a230fc25d128c9d1b56061a&SESSION_ID=6a26d6ecf84152d6405839fe?PROLIFIC_PID=6a020761171e2014c686e110&SESSION_ID=6a26d6ecf84152d6405839fe?","en-US,en;q=0.9","6a020761171e2014c686e110","6a230fc25d128c9d1b56061a","6a26d6ecf84152d6405839fe?","6a020761171e2014c686e110","6a230fc25d128c9d1b56061a","6a26d6ecf84152d6405839fe?","30","[5,7,15,11,21,6,1,9,22,10,29,25,12,3,2,19,20,16,14,8,30,17,26,23,24,4,28,27,18,13]","[""U5"",""U7"",""P15"",""P11"",""P21"",""P6"",""U1"",""U9"",""U22"",""P10"",""U29"",""U25"",""U12"",""P3"",""P2"",""P19"",""P20"",""P16"",""U14"",""P8"",""U30"",""U17"",""P26"",""U23"",""P24"",""P4"",""P28"",""P27"",""U18"",""U13""]","[""P5"",""P7"",""U15"",""U11"",""U21"",""U6"",""P1"",""P9"",""P22"",""U10"",""P29"",""P25"",""P12"",""U3"",""U2"",""U19"",""U20"",""U16"",""P14"",""U8"",""P30"",""P17"",""U26"",""P23"",""U24"",""U4"",""U28"",""U27"",""P18"",""P13""]","5","5","0","0","0","0","","6499","","{""confidence_rating"":""Moderately confident""}","confidence_question","[0]","","","","","","","","","beach","Unpredictable","","","","U5","5","1","1","","","","","","","","","","","","","Moderately confident"
"","","","","","video-keyboard-response","23","2.0.0","412011","80","1","2026-06-08 14:53:35","segmentation_norming_randomized_order_maxrun_attention_v4","88.97.165.187","Mozilla/5.0 (Windows NT 10.0; Win64; x64) AppleWebKit/537.36 (KHTML, like Gecko) Chrome/149.0.0.0 Safari/537.36","WebKit","Chrome","149.0.0.0","Windows","10.0","https://uencdihehs.cognition.run/?PROLIFIC_PID=6a020761171e2014c686e110&STUDY_ID=6a230fc25d128c9d1b56061a&STUDY_ID=6a230fc25d128c9d1b56061a&SESSION_ID=6a26d6ecf84152d6405839fe?PROLIFIC_PID=6a020761171e2014c686e110&SESSION_ID=6a26d6ecf84152d6405839fe?","en-US,en;q=0.9","6a020761171e2014c686e110","6a230fc25d128c9d1b56061a","6a26d6ecf84152d6405839fe?","6a020761171e2014c686e110","6a230fc25d128c9d1b56061a","6a26d6ecf84152d6405839fe?","30","[5,7,15,11,21,6,1,9,22,10,29,25,12,3,2,19,20,16,14,8,30,17,26,23,24,4,28,27,18,13]","[""U5"",""U7"",""P15"",""P11"",""P21"",""P6"",""U1"",""U9"",""U22"",""P10"",""U29"",""U25"",""U12"",""P3"",""P2"",""P19"",""P20"",""P16"",""U14"",""P8"",""U30"",""U17"",""P26"",""U23"",""P24"",""P4"",""P28"",""P27"",""U18"",""U13""]","[""P5"",""P7"",""U15"",""U11"",""U21"",""U6"",""P1"",""P9"",""P22"",""U10"",""P29"",""P25"",""P12"",""U3"",""U2"",""U19"",""U20"",""U16"",""P14"",""U8"",""P30"",""P17"",""U26"",""P23"",""U24"",""U4"",""U28"",""U27"",""P18"",""P13""]","5","5","0","0","0","0","","null","[""bike_v2.mp4""]","null","segmentation_video","","","","","","","","","bike_v2.mp4","bike","Unpredictable","[3.452859,10.271824,16.166206,20.670085,24.788036]","5","","U7","7","1","2","4.1179510000000015","false","false","false","","false","0","0","false","false","false","false",""
"","","","","","survey-multi-choice","26","2.0.0","414794","80","1","2026-06-08 14:53:35","segmentation_norming_randomized_order_maxrun_attention_v4","88.97.165.187","Mozilla/5.0 (Windows NT 10.0; Win64; x64) AppleWebKit/537.36 (KHTML, like Gecko) Chrome/149.0.0.0 Safari/537.36","WebKit","Chrome","149.0.0.0","Windows","10.0","https://uencdihehs.cognition.run/?PROLIFIC_PID=6a020761171e2014c686e110&STUDY_ID=6a230fc25d128c9d1b56061a&STUDY_ID=6a230fc25d128c9d1b56061a&SESSION_ID=6a26d6ecf84152d6405839fe?PROLIFIC_PID=6a020761171e2014c686e110&SESSION_ID=6a26d6ecf84152d6405839fe?","en-US,en;q=0.9","6a020761171e2014c686e110","6a230fc25d128c9d1b56061a","6a26d6ecf84152d6405839fe?","6a020761171e2014c686e110","6a230fc25d128c9d1b56061a","6a26d6ecf84152d6405839fe?","30","[5,7,15,11,21,6,1,9,22,10,29,25,12,3,2,19,20,16,14,8,30,17,26,23,24,4,28,27,18,13]","[""U5"",""U7"",""P15"",""P11"",""P21"",""P6"",""U1"",""U9"",""U22"",""P10"",""U29"",""U25"",""U12"",""P3"",""P2"",""P19"",""P20"",""P16"",""U14"",""P8"",""U30"",""U17"",""P26"",""U23"",""P24"",""P4"",""P28"",""P27"",""U18"",""U13""]","[""P5"",""P7"",""U15"",""U11"",""U21"",""U6"",""P1"",""P9"",""P22"",""U10"",""P29"",""P25"",""P12"",""U3"",""U2"",""U19"",""U20"",""U16"",""P14"",""U8"",""P30"",""P17"",""U26"",""P23"",""U24"",""U4"",""U28"",""U27"",""P18"",""P13""]","5","5","0","0","0","0","","2783","","{""confidence_rating"":""Moderately confident""}","confidence_question","[0]","","","","","","","","","bike","Unpredictable","","","","U7","7","1","2","","","","","","","","","","","","","Moderately confident"
"","","","","","video-keyboard-response","27","2.0.0","445751","80","1","2026-06-08 14:53:35","segmentation_norming_randomized_order_maxrun_attention_v4","88.97.165.187","Mozilla/5.0 (Windows NT 10.0; Win64; x64) AppleWebKit/537.36 (KHTML, like Gecko) Chrome/149.0.0.0 Safari/537.36","WebKit","Chrome","149.0.0.0","Windows","10.0","https://uencdihehs.cognition.run/?PROLIFIC_PID=6a020761171e2014c686e110&STUDY_ID=6a230fc25d128c9d1b56061a&STUDY_ID=6a230fc25d128c9d1b56061a&SESSION_ID=6a26d6ecf84152d6405839fe?PROLIFIC_PID=6a020761171e2014c686e110&SESSION_ID=6a26d6ecf84152d6405839fe?","en-US,en;q=0.9","6a020761171e2014c686e110","6a230fc25d128c9d1b56061a","6a26d6ecf84152d6405839fe?","6a020761171e2014c686e110","6a230fc25d128c9d1b56061a","6a26d6ecf84152d6405839fe?","30","[5,7,15,11,21,6,1,9,22,10,29,25,12,3,2,19,20,16,14,8,30,17,26,23,24,4,28,27,18,13]","[""U5"",""U7"",""P15"",""P11"",""P21"",""P6"",""U1"",""U9"",""U22"",""P10"",""U29"",""U25"",""U12"",""P3"",""P2"",""P19"",""P20"",""P16"",""U14"",""P8"",""U30"",""U17"",""P26"",""U23"",""P24"",""P4"",""P28"",""P27"",""U18"",""U13""]","[""P5"",""P7"",""U15"",""U11"",""U21"",""U6"",""P1"",""P9"",""P22"",""U10"",""P29"",""P25"",""P12"",""U3"",""U2"",""U19"",""U20"",""U16"",""P14"",""U8"",""P30"",""P17"",""U26"",""P23"",""U24"",""U4"",""U28"",""U27"",""P18"",""P13""]","5","5","0","0","0","0","","null","[""laundry_v1.mp4""]","null","segmentation_video","","","","","","","","","laundry_v1.mp4","laundry","Predictable","[3.870315,8.422394,12.341839,15.785358,19.015641,25.030146,26.549739]","7","","P15","15","1","3","1.5195930000000004","false","false","false","","false","0","0","false","false","false","false",""
"","","","","","survey-multi-choice","30","2.0.0","486760","80","1","2026-06-08 14:53:35","segmentation_norming_randomized_order_maxrun_attention_v4","88.97.165.187","Mozilla/5.0 (Windows NT 10.0; Win64; x64) AppleWebKit/537.36 (KHTML, like Gecko) Chrome/149.0.0.0 Safari/537.36","WebKit","Chrome","149.0.0.0","Windows","10.0","https://uencdihehs.cognition.run/?PROLIFIC_PID=6a020761171e2014c686e110&STUDY_ID=6a230fc25d128c9d1b56061a&STUDY_ID=6a230fc25d128c9d1b56061a&SESSION_ID=6a26d6ecf84152d6405839fe?PROLIFIC_PID=6a020761171e2014c686e110&SESSION_ID=6a26d6ecf84152d6405839fe?","en-US,en;q=0.9","6a020761171e2014c686e110","6a230fc25d128c9d1b56061a","6a26d6ecf84152d6405839fe?","6a020761171e2014c686e110","6a230fc25d128c9d1b56061a","6a26d6ecf84152d6405839fe?","30","[5,7,15,11,21,6,1,9,22,10,29,25,12,3,2,19,20,16,14,8,30,17,26,23,24,4,28,27,18,13]","[""U5"",""U7"",""P15"",""P11"",""P21"",""P6"",""U1"",""U9"",""U22"",""P10"",""U29"",""U25"",""U12"",""P3"",""P2"",""P19"",""P20"",""P16"",""U14"",""P8"",""U30"",""U17"",""P26"",""U23"",""P24"",""P4"",""P28"",""P27"",""U18"",""U13""]","[""P5"",""P7"",""U15"",""U11"",""U21"",""U6"",""P1"",""P9"",""P22"",""U10"",""P29"",""P25"",""P12"",""U3"",""U2"",""U19"",""U20"",""U16"",""P14"",""U8"",""P30"",""P17"",""U26"",""P23"",""U24"",""U4"",""U28"",""U27"",""P18"",""P13""]","5","5","0","0","0","0","","41008","","{""confidence_rating"":""Moderately confident""}","confidence_question","[0]","","","","","","","","","laundry","Predictable","","","","P15","15","1","3","","","","","","","","","","","","","Moderately confident"
"","","","","","video-keyboard-response","31","2.0.0","517841","80","1","2026-06-08 14:53:35","segmentation_norming_randomized_order_maxrun_attention_v4","88.97.165.187","Mozilla/5.0 (Windows NT 10.0; Win64; x64) AppleWebKit/537.36 (KHTML, like Gecko) Chrome/149.0.0.0 Safari/537.36","WebKit","Chrome","149.0.0.0","Windows","10.0","https://uencdihehs.cognition.run/?PROLIFIC_PID=6a020761171e2014c686e110&STUDY_ID=6a230fc25d128c9d1b56061a&STUDY_ID=6a230fc25d128c9d1b56061a&SESSION_ID=6a26d6ecf84152d6405839fe?PROLIFIC_PID=6a020761171e2014c686e110&SESSION_ID=6a26d6ecf84152d6405839fe?","en-US,en;q=0.9","6a020761171e2014c686e110","6a230fc25d128c9d1b56061a","6a26d6ecf84152d6405839fe?","6a020761171e2014c686e110","6a230fc25d128c9d1b56061a","6a26d6ecf84152d6405839fe?","30","[5,7,15,11,21,6,1,9,22,10,29,25,12,3,2,19,20,16,14,8,30,17,26,23,24,4,28,27,18,13]","[""U5"",""U7"",""P15"",""P11"",""P21"",""P6"",""U1"",""U9"",""U22"",""P10"",""U29"",""U25"",""U12"",""P3"",""P2"",""P19"",""P20"",""P16"",""U14"",""P8"",""U30"",""U17"",""P26"",""U23"",""P24"",""P4"",""P28"",""P27"",""U18"",""U13""]","[""P5"",""P7"",""U15"",""U11"",""U21"",""U6"",""P1"",""P9"",""P22"",""U10"",""P29"",""P25"",""P12"",""U3"",""U2"",""U19"",""U20"",""U16"",""P14"",""U8"",""P30"",""P17"",""U26"",""P23"",""U24"",""U4"",""U28"",""U27"",""P18"",""P13""]","5","5","0","0","0","0","","null","[""fireplace_v1.mp4""]","null","segmentation_video","","","","","","","","","fireplace_v1.mp4","fireplace","Predictable","[2.418621,4.109719,6.133804,10.383192,15.105332,21.87629,27.468276,30.876251]","8","","P11","11","1","4","1.6910980000000002","false","false","false","","false","0","0","false","false","false","false",""
"","","","","","survey-multi-choice","34","2.0.0","525782","80","1","2026-06-08 14:53:35","segmentation_norming_randomized_order_maxrun_attention_v4","88.97.165.187","Mozilla/5.0 (Windows NT 10.0; Win64; x64) AppleWebKit/537.36 (KHTML, like Gecko) Chrome/149.0.0.0 Safari/537.36","WebKit","Chrome","149.0.0.0","Windows","10.0","https://uencdihehs.cognition.run/?PROLIFIC_PID=6a020761171e2014c686e110&STUDY_ID=6a230fc25d128c9d1b56061a&STUDY_ID=6a230fc25d128c9d1b56061a&SESSION_ID=6a26d6ecf84152d6405839fe?PROLIFIC_PID=6a020761171e2014c686e110&SESSION_ID=6a26d6ecf84152d6405839fe?","en-US,en;q=0.9","6a020761171e2014c686e110","6a230fc25d128c9d1b56061a","6a26d6ecf84152d6405839fe?","6a020761171e2014c686e110","6a230fc25d128c9d1b56061a","6a26d6ecf84152d6405839fe?","30","[5,7,15,11,21,6,1,9,22,10,29,25,12,3,2,19,20,16,14,8,30,17,26,23,24,4,28,27,18,13]","[""U5"",""U7"",""P15"",""P11"",""P21"",""P6"",""U1"",""U9"",""U22"",""P10"",""U29"",""U25"",""U12"",""P3"",""P2"",""P19"",""P20"",""P16"",""U14"",""P8"",""U30"",""U17"",""P26"",""U23"",""P24"",""P4"",""P28"",""P27"",""U18"",""U13""]","[""P5"",""P7"",""U15"",""U11"",""U21"",""U6"",""P1"",""P9"",""P22"",""U10"",""P29"",""P25"",""P12"",""U3"",""U2"",""U19"",""U20"",""U16"",""P14"",""U8"",""P30"",""P17"",""U26"",""P23"",""U24"",""U4"",""U28"",""U27"",""P18"",""P13""]","5","5","0","0","0","0","","7940","","{""confidence_rating"":""Moderately confident""}","confidence_question","[0]","","","","","","","","","fireplace","Predictable","","","","P11","11","1","4","","","","","","","","","","","","","Moderately confident"
"","","","","","video-keyboard-response","35","2.0.0","569941","80","1","2026-06-08 14:53:35","segmentation_norming_randomized_order_maxrun_attention_v4","88.97.165.187","Mozilla/5.0 (Windows NT 10.0; Win64; x64) AppleWebKit/537.36 (KHTML, like Gecko) Chrome/149.0.0.0 Safari/537.36","WebKit","Chrome","149.0.0.0","Windows","10.0","https://uencdihehs.cognition.run/?PROLIFIC_PID=6a020761171e2014c686e110&STUDY_ID=6a230fc25d128c9d1b56061a&STUDY_ID=6a230fc25d128c9d1b56061a&SESSION_ID=6a26d6ecf84152d6405839fe?PROLIFIC_PID=6a020761171e2014c686e110&SESSION_ID=6a26d6ecf84152d6405839fe?","en-US,en;q=0.9","6a020761171e2014c686e110","6a230fc25d128c9d1b56061a","6a26d6ecf84152d6405839fe?","6a020761171e2014c686e110","6a230fc25d128c9d1b56061a","6a26d6ecf84152d6405839fe?","30","[5,7,15,11,21,6,1,9,22,10,29,25,12,3,2,19,20,16,14,8,30,17,26,23,24,4,28,27,18,13]","[""U5"",""U7"",""P15"",""P11"",""P21"",""P6"",""U1"",""U9"",""U22"",""P10"",""U29"",""U25"",""U12"",""P3"",""P2"",""P19"",""P20"",""P16"",""U14"",""P8"",""U30"",""U17"",""P26"",""U23"",""P24"",""P4"",""P28"",""P27"",""U18"",""U13""]","[""P5"",""P7"",""U15"",""U11"",""U21"",""U6"",""P1"",""P9"",""P22"",""U10"",""P29"",""P25"",""P12"",""U3"",""U2"",""U19"",""U20"",""U16"",""P14"",""U8"",""P30"",""P17"",""U26"",""P23"",""U24"",""U4"",""U28"",""U27"",""P18"",""P13""]","5","5","0","0","0","0","","null","[""printer_v1.mp4""]","null","segmentation_video","","","","","","","","","printer_v1.mp4","printer","Predictable","[7.851805,13.295617,21.026012,23.032945,23.900981,28.262963,32.23809,35.224051,39.261139,42.280403]","10","","P21","21","1","5","0.868036","false","false","false","","false","0","0","false","false","false","false",""
"","","","","","survey-multi-choice","38","2.0.0","594084","80","1","2026-06-08 14:53:35","segmentation_norming_randomized_order_maxrun_attention_v4","88.97.165.187","Mozilla/5.0 (Windows NT 10.0; Win64; x64) AppleWebKit/537.36 (KHTML, like Gecko) Chrome/149.0.0.0 Safari/537.36","WebKit","Chrome","149.0.0.0","Windows","10.0","https://uencdihehs.cognition.run/?PROLIFIC_PID=6a020761171e2014c686e110&STUDY_ID=6a230fc25d128c9d1b56061a&STUDY_ID=6a230fc25d128c9d1b56061a&SESSION_ID=6a26d6ecf84152d6405839fe?PROLIFIC_PID=6a020761171e2014c686e110&SESSION_ID=6a26d6ecf84152d6405839fe?","en-US,en;q=0.9","6a020761171e2014c686e110","6a230fc25d128c9d1b56061a","6a26d6ecf84152d6405839fe?","6a020761171e2014c686e110","6a230fc25d128c9d1b56061a","6a26d6ecf84152d6405839fe?","30","[5,7,15,11,21,6,1,9,22,10,29,25,12,3,2,19,20,16,14,8,30,17,26,23,24,4,28,27,18,13]","[""U5"",""U7"",""P15"",""P11"",""P21"",""P6"",""U1"",""U9"",""U22"",""P10"",""U29"",""U25"",""U12"",""P3"",""P2"",""P19"",""P20"",""P16"",""U14"",""P8"",""U30"",""U17"",""P26"",""U23"",""P24"",""P4"",""P28"",""P27"",""U18"",""U13""]","[""P5"",""P7"",""U15"",""U11"",""U21"",""U6"",""P1"",""P9"",""P22"",""U10"",""P29"",""P25"",""P12"",""U3"",""U2"",""U19"",""U20"",""U16"",""P14"",""U8"",""P30"",""P17"",""U26"",""P23"",""U24"",""U4"",""U28"",""U27"",""P18"",""P13""]","5","5","0","0","0","0","","24143","","{""confidence_rating"":""Moderately confident""}","confidence_question","[0]","","","","","","","","","printer","Predictable","","","","P21","21","1","5","","","","","","","","","","","","","Moderately confident"
"","","","","","video-keyboard-response","39","2.0.0","628851","80","1","2026-06-08 14:53:35","segmentation_norming_randomized_order_maxrun_attention_v4","88.97.165.187","Mozilla/5.0 (Windows NT 10.0; Win64; x64) AppleWebKit/537.36 (KHTML, like Gecko) Chrome/149.0.0.0 Safari/537.36","WebKit","Chrome","149.0.0.0","Windows","10.0","https://uencdihehs.cognition.run/?PROLIFIC_PID=6a020761171e2014c686e110&STUDY_ID=6a230fc25d128c9d1b56061a&STUDY_ID=6a230fc25d128c9d1b56061a&SESSION_ID=6a26d6ecf84152d6405839fe?PROLIFIC_PID=6a020761171e2014c686e110&SESSION_ID=6a26d6ecf84152d6405839fe?","en-US,en;q=0.9","6a020761171e2014c686e110","6a230fc25d128c9d1b56061a","6a26d6ecf84152d6405839fe?","6a020761171e2014c686e110","6a230fc25d128c9d1b56061a","6a26d6ecf84152d6405839fe?","30","[5,7,15,11,21,6,1,9,22,10,29,25,12,3,2,19,20,16,14,8,30,17,26,23,24,4,28,27,18,13]","[""U5"",""U7"",""P15"",""P11"",""P21"",""P6"",""U1"",""U9"",""U22"",""P10"",""U29"",""U25"",""U12"",""P3"",""P2"",""P19"",""P20"",""P16"",""U14"",""P8"",""U30"",""U17"",""P26"",""U23"",""P24"",""P4"",""P28"",""P27"",""U18"",""U13""]","[""P5"",""P7"",""U15"",""U11"",""U21"",""U6"",""P1"",""P9"",""P22"",""U10"",""P29"",""P25"",""P12"",""U3"",""U2"",""U19"",""U20"",""U16"",""P14"",""U8"",""P30"",""P17"",""U26"",""P23"",""U24"",""U4"",""U28"",""U27"",""P18"",""P13""]","5","5","0","0","0","0","","null","[""bedding_v1.mp4""]","null","segmentation_video","","","","","","","","","bedding_v1.mp4","bedding","Predictable","[4.030072,9.407509,18.107479,20.209755,26.623581,30.494868,33.665752]","7","","P6","6","1","6","2.102276","false","false","false","","false","0","0","false","false","false","false",""
"","","","","","survey-multi-choice","42","2.0.0","631472","80","1","2026-06-08 14:53:35","segmentation_norming_randomized_order_maxrun_attention_v4","88.97.165.187","Mozilla/5.0 (Windows NT 10.0; Win64; x64) AppleWebKit/537.36 (KHTML, like Gecko) Chrome/149.0.0.0 Safari/537.36","WebKit","Chrome","149.0.0.0","Windows","10.0","https://uencdihehs.cognition.run/?PROLIFIC_PID=6a020761171e2014c686e110&STUDY_ID=6a230fc25d128c9d1b56061a&STUDY_ID=6a230fc25d128c9d1b56061a&SESSION_ID=6a26d6ecf84152d6405839fe?PROLIFIC_PID=6a020761171e2014c686e110&SESSION_ID=6a26d6ecf84152d6405839fe?","en-US,en;q=0.9","6a020761171e2014c686e110","6a230fc25d128c9d1b56061a","6a26d6ecf84152d6405839fe?","6a020761171e2014c686e110","6a230fc25d128c9d1b56061a","6a26d6ecf84152d6405839fe?","30","[5,7,15,11,21,6,1,9,22,10,29,25,12,3,2,19,20,16,14,8,30,17,26,23,24,4,28,27,18,13]","[""U5"",""U7"",""P15"",""P11"",""P21"",""P6"",""U1"",""U9"",""U22"",""P10"",""U29"",""U25"",""U12"",""P3"",""P2"",""P19"",""P20"",""P16"",""U14"",""P8"",""U30"",""U17"",""P26"",""U23"",""P24"",""P4"",""P28"",""P27"",""U18"",""U13""]","[""P5"",""P7"",""U15"",""U11"",""U21"",""U6"",""P1"",""P9"",""P22"",""U10"",""P29"",""P25"",""P12"",""U3"",""U2"",""U19"",""U20"",""U16"",""P14"",""U8"",""P30"",""P17"",""U26"",""P23"",""U24"",""U4"",""U28"",""U27"",""P18"",""P13""]","5","5","0","0","0","0","","2620","","{""confidence_rating"":""Moderately confident""}","confidence_question","[0]","","","","","","","","","bedding","Predictable","","","","P6","6","1","6","","","","","","","","","","","","","Moderately confident"
"","","","","","video-keyboard-response","43","2.0.0","660331","80","1","2026-06-08 14:53:35","segmentation_norming_randomized_order_maxrun_attention_v4","88.97.165.187","Mozilla/5.0 (Windows NT 10.0; Win64; x64) AppleWebKit/537.36 (KHTML, like Gecko) Chrome/149.0.0.0 Safari/537.36","WebKit","Chrome","149.0.0.0","Windows","10.0","https://uencdihehs.cognition.run/?PROLIFIC_PID=6a020761171e2014c686e110&STUDY_ID=6a230fc25d128c9d1b56061a&STUDY_ID=6a230fc25d128c9d1b56061a&SESSION_ID=6a26d6ecf84152d6405839fe?PROLIFIC_PID=6a020761171e2014c686e110&SESSION_ID=6a26d6ecf84152d6405839fe?","en-US,en;q=0.9","6a020761171e2014c686e110","6a230fc25d128c9d1b56061a","6a26d6ecf84152d6405839fe?","6a020761171e2014c686e110","6a230fc25d128c9d1b56061a","6a26d6ecf84152d6405839fe?","30","[5,7,15,11,21,6,1,9,22,10,29,25,12,3,2,19,20,16,14,8,30,17,26,23,24,4,28,27,18,13]","[""U5"",""U7"",""P15"",""P11"",""P21"",""P6"",""U1"",""U9"",""U22"",""P10"",""U29"",""U25"",""U12"",""P3"",""P2"",""P19"",""P20"",""P16"",""U14"",""P8"",""U30"",""U17"",""P26"",""U23"",""P24"",""P4"",""P28"",""P27"",""U18"",""U13""]","[""P5"",""P7"",""U15"",""U11"",""U21"",""U6"",""P1"",""P9"",""P22"",""U10"",""P29"",""P25"",""P12"",""U3"",""U2"",""U19"",""U20"",""U16"",""P14"",""U8"",""P30"",""P17"",""U26"",""P23"",""U24"",""U4"",""U28"",""U27"",""P18"",""P13""]","5","5","0","0","0","0","","null","[""baking_v2.mp4""]","null","segmentation_video","","","","","","","","","baking_v2.mp4","baking","Unpredictable","[3.120109,9.864017,12.471511,14.585361,17.537162,21.520255,23.020977,25.51959]","8","","U1","1","1","7","1.5007219999999997","false","false","false","","false","0","0","false","false","false","false",""
"","","","","","survey-multi-choice","46","2.0.0","664369","80","1","2026-06-08 14:53:35","segmentation_norming_randomized_order_maxrun_attention_v4","88.97.165.187","Mozilla/5.0 (Windows NT 10.0; Win64; x64) AppleWebKit/537.36 (KHTML, like Gecko) Chrome/149.0.0.0 Safari/537.36","WebKit","Chrome","149.0.0.0","Windows","10.0","https://uencdihehs.cognition.run/?PROLIFIC_PID=6a020761171e2014c686e110&STUDY_ID=6a230fc25d128c9d1b56061a&STUDY_ID=6a230fc25d128c9d1b56061a&SESSION_ID=6a26d6ecf84152d6405839fe?PROLIFIC_PID=6a020761171e2014c686e110&SESSION_ID=6a26d6ecf84152d6405839fe?","en-US,en;q=0.9","6a020761171e2014c686e110","6a230fc25d128c9d1b56061a","6a26d6ecf84152d6405839fe?","6a020761171e2014c686e110","6a230fc25d128c9d1b56061a","6a26d6ecf84152d6405839fe?","30","[5,7,15,11,21,6,1,9,22,10,29,25,12,3,2,19,20,16,14,8,30,17,26,23,24,4,28,27,18,13]","[""U5"",""U7"",""P15"",""P11"",""P21"",""P6"",""U1"",""U9"",""U22"",""P10"",""U29"",""U25"",""U12"",""P3"",""P2"",""P19"",""P20"",""P16"",""U14"",""P8"",""U30"",""U17"",""P26"",""U23"",""P24"",""P4"",""P28"",""P27"",""U18"",""U13""]","[""P5"",""P7"",""U15"",""U11"",""U21"",""U6"",""P1"",""P9"",""P22"",""U10"",""P29"",""P25"",""P12"",""U3"",""U2"",""U19"",""U20"",""U16"",""P14"",""U8"",""P30"",""P17"",""U26"",""P23"",""U24"",""U4"",""U28"",""U27"",""P18"",""P13""]","5","5","0","0","0","0","","4038","","{""confidence_rating"":""Moderately confident""}","confidence_question","[0]","","","","","","","","","baking","Unpredictable","","","","U1","1","1","7","","","","","","","","","","","","","Moderately confident"
"","","","","","video-keyboard-response","47","2.0.0","702191","80","1","2026-06-08 14:53:35","segmentation_norming_randomized_order_maxrun_attention_v4","88.97.165.187","Mozilla/5.0 (Windows NT 10.0; Win64; x64) AppleWebKit/537.36 (KHTML, like Gecko) Chrome/149.0.0.0 Safari/537.36","WebKit","Chrome","149.0.0.0","Windows","10.0","https://uencdihehs.cognition.run/?PROLIFIC_PID=6a020761171e2014c686e110&STUDY_ID=6a230fc25d128c9d1b56061a&STUDY_ID=6a230fc25d128c9d1b56061a&SESSION_ID=6a26d6ecf84152d6405839fe?PROLIFIC_PID=6a020761171e2014c686e110&SESSION_ID=6a26d6ecf84152d6405839fe?","en-US,en;q=0.9","6a020761171e2014c686e110","6a230fc25d128c9d1b56061a","6a26d6ecf84152d6405839fe?","6a020761171e2014c686e110","6a230fc25d128c9d1b56061a","6a26d6ecf84152d6405839fe?","30","[5,7,15,11,21,6,1,9,22,10,29,25,12,3,2,19,20,16,14,8,30,17,26,23,24,4,28,27,18,13]","[""U5"",""U7"",""P15"",""P11"",""P21"",""P6"",""U1"",""U9"",""U22"",""P10"",""U29"",""U25"",""U12"",""P3"",""P2"",""P19"",""P20"",""P16"",""U14"",""P8"",""U30"",""U17"",""P26"",""U23"",""P24"",""P4"",""P28"",""P27"",""U18"",""U13""]","[""P5"",""P7"",""U15"",""U11"",""U21"",""U6"",""P1"",""P9"",""P22"",""U10"",""P29"",""P25"",""P12"",""U3"",""U2"",""U19"",""U20"",""U16"",""P14"",""U8"",""P30"",""P17"",""U26"",""P23"",""U24"",""U4"",""U28"",""U27"",""P18"",""P13""]","5","5","0","0","0","0","","null","[""cereal_v2.mp4""]","null","segmentation_video","","","","","","","","","cereal_v2.mp4","cereal","Unpredictable","[2.573539,6.324836,12.224712,17.539363,26.778017,29.928401,32.041106,34.955197]","8","","U9","9","1","8","2.1127049999999983","false","false","false","","false","0","0","false","false","false","false",""
"","","","","","survey-multi-choice","50","2.0.0","706333","80","1","2026-06-08 14:53:35","segmentation_norming_randomized_order_maxrun_attention_v4","88.97.165.187","Mozilla/5.0 (Windows NT 10.0; Win64; x64) AppleWebKit/537.36 (KHTML, like Gecko) Chrome/149.0.0.0 Safari/537.36","WebKit","Chrome","149.0.0.0","Windows","10.0","https://uencdihehs.cognition.run/?PROLIFIC_PID=6a020761171e2014c686e110&STUDY_ID=6a230fc25d128c9d1b56061a&STUDY_ID=6a230fc25d128c9d1b56061a&SESSION_ID=6a26d6ecf84152d6405839fe?PROLIFIC_PID=6a020761171e2014c686e110&SESSION_ID=6a26d6ecf84152d6405839fe?","en-US,en;q=0.9","6a020761171e2014c686e110","6a230fc25d128c9d1b56061a","6a26d6ecf84152d6405839fe?","6a020761171e2014c686e110","6a230fc25d128c9d1b56061a","6a26d6ecf84152d6405839fe?","30","[5,7,15,11,21,6,1,9,22,10,29,25,12,3,2,19,20,16,14,8,30,17,26,23,24,4,28,27,18,13]","[""U5"",""U7"",""P15"",""P11"",""P21"",""P6"",""U1"",""U9"",""U22"",""P10"",""U29"",""U25"",""U12"",""P3"",""P2"",""P19"",""P20"",""P16"",""U14"",""P8"",""U30"",""U17"",""P26"",""U23"",""P24"",""P4"",""P28"",""P27"",""U18"",""U13""]","[""P5"",""P7"",""U15"",""U11"",""U21"",""U6"",""P1"",""P9"",""P22"",""U10"",""P29"",""P25"",""P12"",""U3"",""U2"",""U19"",""U20"",""U16"",""P14"",""U8"",""P30"",""P17"",""U26"",""P23"",""U24"",""U4"",""U28"",""U27"",""P18"",""P13""]","5","5","0","0","0","0","","4142","","{""confidence_rating"":""Moderately confident""}","confidence_question","[0]","","","","","","","","","cereal","Unpredictable","","","","U9","9","1","8","","","","","","","","","","","","","Moderately confident"
"","","","","","video-keyboard-response","51","2.0.0","725551","80","1","2026-06-08 14:53:35","segmentation_norming_randomized_order_maxrun_attention_v4","88.97.165.187","Mozilla/5.0 (Windows NT 10.0; Win64; x64) AppleWebKit/537.36 (KHTML, like Gecko) Chrome/149.0.0.0 Safari/537.36","WebKit","Chrome","149.0.0.0","Windows","10.0","https://uencdihehs.cognition.run/?PROLIFIC_PID=6a020761171e2014c686e110&STUDY_ID=6a230fc25d128c9d1b56061a&STUDY_ID=6a230fc25d128c9d1b56061a&SESSION_ID=6a26d6ecf84152d6405839fe?PROLIFIC_PID=6a020761171e2014c686e110&SESSION_ID=6a26d6ecf84152d6405839fe?","en-US,en;q=0.9","6a020761171e2014c686e110","6a230fc25d128c9d1b56061a","6a26d6ecf84152d6405839fe?","6a020761171e2014c686e110","6a230fc25d128c9d1b56061a","6a26d6ecf84152d6405839fe?","30","[5,7,15,11,21,6,1,9,22,10,29,25,12,3,2,19,20,16,14,8,30,17,26,23,24,4,28,27,18,13]","[""U5"",""U7"",""P15"",""P11"",""P21"",""P6"",""U1"",""U9"",""U22"",""P10"",""U29"",""U25"",""U12"",""P3"",""P2"",""P19"",""P20"",""P16"",""U14"",""P8"",""U30"",""U17"",""P26"",""U23"",""P24"",""P4"",""P28"",""P27"",""U18"",""U13""]","[""P5"",""P7"",""U15"",""U11"",""U21"",""U6"",""P1"",""P9"",""P22"",""U10"",""P29"",""P25"",""P12"",""U3"",""U2"",""U19"",""U20"",""U16"",""P14"",""U8"",""P30"",""P17"",""U26"",""P23"",""U24"",""U4"",""U28"",""U27"",""P18"",""P13""]","5","5","0","0","0","0","","null","[""record_v2.mp4""]","null","segmentation_video","","","","","","","","","record_v2.mp4","record","Unpredictable","[6.104474,8.799712,10.564537,16.847675]","4","","U22","22","1","9","1.764825","false","false","false","","false","0","0","false","false","false","false",""
"","","","","","survey-multi-choice","54","2.0.0","732068","80","1","2026-06-08 14:53:35","segmentation_norming_randomized_order_maxrun_attention_v4","88.97.165.187","Mozilla/5.0 (Windows NT 10.0; Win64; x64) AppleWebKit/537.36 (KHTML, like Gecko) Chrome/149.0.0.0 Safari/537.36","WebKit","Chrome","149.0.0.0","Windows","10.0","https://uencdihehs.cognition.run/?PROLIFIC_PID=6a020761171e2014c686e110&STUDY_ID=6a230fc25d128c9d1b56061a&STUDY_ID=6a230fc25d128c9d1b56061a&SESSION_ID=6a26d6ecf84152d6405839fe?PROLIFIC_PID=6a020761171e2014c686e110&SESSION_ID=6a26d6ecf84152d6405839fe?","en-US,en;q=0.9","6a020761171e2014c686e110","6a230fc25d128c9d1b56061a","6a26d6ecf84152d6405839fe?","6a020761171e2014c686e110","6a230fc25d128c9d1b56061a","6a26d6ecf84152d6405839fe?","30","[5,7,15,11,21,6,1,9,22,10,29,25,12,3,2,19,20,16,14,8,30,17,26,23,24,4,28,27,18,13]","[""U5"",""U7"",""P15"",""P11"",""P21"",""P6"",""U1"",""U9"",""U22"",""P10"",""U29"",""U25"",""U12"",""P3"",""P2"",""P19"",""P20"",""P16"",""U14"",""P8"",""U30"",""U17"",""P26"",""U23"",""P24"",""P4"",""P28"",""P27"",""U18"",""U13""]","[""P5"",""P7"",""U15"",""U11"",""U21"",""U6"",""P1"",""P9"",""P22"",""U10"",""P29"",""P25"",""P12"",""U3"",""U2"",""U19"",""U20"",""U16"",""P14"",""U8"",""P30"",""P17"",""U26"",""P23"",""U24"",""U4"",""U28"",""U27"",""P18"",""P13""]","5","5","0","0","0","0","","6516","","{""confidence_rating"":""Moderately confident""}","confidence_question","[0]","","","","","","","","","record","Unpredictable","","","","U22","22","1","9","","","","","","","","","","","","","Moderately confident"
"","","","","","video-keyboard-response","55","2.0.0","762631","80","1","2026-06-08 14:53:35","segmentation_norming_randomized_order_maxrun_attention_v4","88.97.165.187","Mozilla/5.0 (Windows NT 10.0; Win64; x64) AppleWebKit/537.36 (KHTML, like Gecko) Chrome/149.0.0.0 Safari/537.36","WebKit","Chrome","149.0.0.0","Windows","10.0","https://uencdihehs.cognition.run/?PROLIFIC_PID=6a020761171e2014c686e110&STUDY_ID=6a230fc25d128c9d1b56061a&STUDY_ID=6a230fc25d128c9d1b56061a&SESSION_ID=6a26d6ecf84152d6405839fe?PROLIFIC_PID=6a020761171e2014c686e110&SESSION_ID=6a26d6ecf84152d6405839fe?","en-US,en;q=0.9","6a020761171e2014c686e110","6a230fc25d128c9d1b56061a","6a26d6ecf84152d6405839fe?","6a020761171e2014c686e110","6a230fc25d128c9d1b56061a","6a26d6ecf84152d6405839fe?","30","[5,7,15,11,21,6,1,9,22,10,29,25,12,3,2,19,20,16,14,8,30,17,26,23,24,4,28,27,18,13]","[""U5"",""U7"",""P15"",""P11"",""P21"",""P6"",""U1"",""U9"",""U22"",""P10"",""U29"",""U25"",""U12"",""P3"",""P2"",""P19"",""P20"",""P16"",""U14"",""P8"",""U30"",""U17"",""P26"",""U23"",""P24"",""P4"",""P28"",""P27"",""U18"",""U13""]","[""P5"",""P7"",""U15"",""U11"",""U21"",""U6"",""P1"",""P9"",""P22"",""U10"",""P29"",""P25"",""P12"",""U3"",""U2"",""U19"",""U20"",""U16"",""P14"",""U8"",""P30"",""P17"",""U26"",""P23"",""U24"",""U4"",""U28"",""U27"",""P18"",""P13""]","5","5","0","0","0","0","","null","[""cleaning_v1.mp4""]","null","segmentation_video","","","","","","","","","cleaning_v1.mp4","cleaning","Predictable","[1.734825,5.401952,8.974955,14.571217,17.785447,20.482238,22.261238,25.439402]","8","","P10","10","1","10","1.779","false","false","false","","false","0","0","false","false","false","false",""
"","","","","","survey-multi-choice","58","2.0.0","764301","80","1","2026-06-08 14:53:35","segmentation_norming_randomized_order_maxrun_attention_v4","88.97.165.187","Mozilla/5.0 (Windows NT 10.0; Win64; x64) AppleWebKit/537.36 (KHTML, like Gecko) Chrome/149.0.0.0 Safari/537.36","WebKit","Chrome","149.0.0.0","Windows","10.0","https://uencdihehs.cognition.run/?PROLIFIC_PID=6a020761171e2014c686e110&STUDY_ID=6a230fc25d128c9d1b56061a&STUDY_ID=6a230fc25d128c9d1b56061a&SESSION_ID=6a26d6ecf84152d6405839fe?PROLIFIC_PID=6a020761171e2014c686e110&SESSION_ID=6a26d6ecf84152d6405839fe?","en-US,en;q=0.9","6a020761171e2014c686e110","6a230fc25d128c9d1b56061a","6a26d6ecf84152d6405839fe?","6a020761171e2014c686e110","6a230fc25d128c9d1b56061a","6a26d6ecf84152d6405839fe?","30","[5,7,15,11,21,6,1,9,22,10,29,25,12,3,2,19,20,16,14,8,30,17,26,23,24,4,28,27,18,13]","[""U5"",""U7"",""P15"",""P11"",""P21"",""P6"",""U1"",""U9"",""U22"",""P10"",""U29"",""U25"",""U12"",""P3"",""P2"",""P19"",""P20"",""P16"",""U14"",""P8"",""U30"",""U17"",""P26"",""U23"",""P24"",""P4"",""P28"",""P27"",""U18"",""U13""]","[""P5"",""P7"",""U15"",""U11"",""U21"",""U6"",""P1"",""P9"",""P22"",""U10"",""P29"",""P25"",""P12"",""U3"",""U2"",""U19"",""U20"",""U16"",""P14"",""U8"",""P30"",""P17"",""U26"",""P23"",""U24"",""U4"",""U28"",""U27"",""P18"",""P13""]","5","5","0","0","0","0","","1669","","{""confidence_rating"":""Moderately confident""}","confidence_question","[0]","","","","","","","","","cleaning","Predictable","","","","P10","10","1","10","","","","","","","","","","","","","Moderately confident"
"","","","","","video-keyboard-response","59","2.0.0","785911","80","1","2026-06-08 14:53:35","segmentation_norming_randomized_order_maxrun_attention_v4","88.97.165.187","Mozilla/5.0 (Windows NT 10.0; Win64; x64) AppleWebKit/537.36 (KHTML, like Gecko) Chrome/149.0.0.0 Safari/537.36","WebKit","Chrome","149.0.0.0","Windows","10.0","https://uencdihehs.cognition.run/?PROLIFIC_PID=6a020761171e2014c686e110&STUDY_ID=6a230fc25d128c9d1b56061a&STUDY_ID=6a230fc25d128c9d1b56061a&SESSION_ID=6a26d6ecf84152d6405839fe?PROLIFIC_PID=6a020761171e2014c686e110&SESSION_ID=6a26d6ecf84152d6405839fe?","en-US,en;q=0.9","6a020761171e2014c686e110","6a230fc25d128c9d1b56061a","6a26d6ecf84152d6405839fe?","6a020761171e2014c686e110","6a230fc25d128c9d1b56061a","6a26d6ecf84152d6405839fe?","30","[5,7,15,11,21,6,1,9,22,10,29,25,12,3,2,19,20,16,14,8,30,17,26,23,24,4,28,27,18,13]","[""U5"",""U7"",""P15"",""P11"",""P21"",""P6"",""U1"",""U9"",""U22"",""P10"",""U29"",""U25"",""U12"",""P3"",""P2"",""P19"",""P20"",""P16"",""U14"",""P8"",""U30"",""U17"",""P26"",""U23"",""P24"",""P4"",""P28"",""P27"",""U18"",""U13""]","[""P5"",""P7"",""U15"",""U11"",""U21"",""U6"",""P1"",""P9"",""P22"",""U10"",""P29"",""P25"",""P12"",""U3"",""U2"",""U19"",""U20"",""U16"",""P14"",""U8"",""P30"",""P17"",""U26"",""P23"",""U24"",""U4"",""U28"",""U27"",""P18"",""P13""]","5","5","0","0","0","0","","null","[""walking_v2.mp4""]","null","segmentation_video","","","","","","","","","walking_v2.mp4","walking","Unpredictable","[2.702481,4.869511,12.722981,18.575966,20.889094]","5","","U29","29","1","11","2.16703","false","false","false","","false","0","0","false","false","false","false",""
"","","","","","survey-multi-choice","62","2.0.0","792026","80","1","2026-06-08 14:53:35","segmentation_norming_randomized_order_maxrun_attention_v4","88.97.165.187","Mozilla/5.0 (Windows NT 10.0; Win64; x64) AppleWebKit/537.36 (KHTML, like Gecko) Chrome/149.0.0.0 Safari/537.36","WebKit","Chrome","149.0.0.0","Windows","10.0","https://uencdihehs.cognition.run/?PROLIFIC_PID=6a020761171e2014c686e110&STUDY_ID=6a230fc25d128c9d1b56061a&STUDY_ID=6a230fc25d128c9d1b56061a&SESSION_ID=6a26d6ecf84152d6405839fe?PROLIFIC_PID=6a020761171e2014c686e110&SESSION_ID=6a26d6ecf84152d6405839fe?","en-US,en;q=0.9","6a020761171e2014c686e110","6a230fc25d128c9d1b56061a","6a26d6ecf84152d6405839fe?","6a020761171e2014c686e110","6a230fc25d128c9d1b56061a","6a26d6ecf84152d6405839fe?","30","[5,7,15,11,21,6,1,9,22,10,29,25,12,3,2,19,20,16,14,8,30,17,26,23,24,4,28,27,18,13]","[""U5"",""U7"",""P15"",""P11"",""P21"",""P6"",""U1"",""U9"",""U22"",""P10"",""U29"",""U25"",""U12"",""P3"",""P2"",""P19"",""P20"",""P16"",""U14"",""P8"",""U30"",""U17"",""P26"",""U23"",""P24"",""P4"",""P28"",""P27"",""U18"",""U13""]","[""P5"",""P7"",""U15"",""U11"",""U21"",""U6"",""P1"",""P9"",""P22"",""U10"",""P29"",""P25"",""P12"",""U3"",""U2"",""U19"",""U20"",""U16"",""P14"",""U8"",""P30"",""P17"",""U26"",""P23"",""U24"",""U4"",""U28"",""U27"",""P18"",""P13""]","5","5","0","0","0","0","","6114","","{""confidence_rating"":""Moderately confident""}","confidence_question","[0]","","","","","","","","","walking","Unpredictable","","","","U29","29","1","11","","","","","","","","","","","","","Moderately confident"
"","","","","","video-keyboard-response","63","2.0.0","819291","80","1","2026-06-08 14:53:35","segmentation_norming_randomized_order_maxrun_attention_v4","88.97.165.187","Mozilla/5.0 (Windows NT 10.0; Win64; x64) AppleWebKit/537.36 (KHTML, like Gecko) Chrome/149.0.0.0 Safari/537.36","WebKit","Chrome","149.0.0.0","Windows","10.0","https://uencdihehs.cognition.run/?PROLIFIC_PID=6a020761171e2014c686e110&STUDY_ID=6a230fc25d128c9d1b56061a&STUDY_ID=6a230fc25d128c9d1b56061a&SESSION_ID=6a26d6ecf84152d6405839fe?PROLIFIC_PID=6a020761171e2014c686e110&SESSION_ID=6a26d6ecf84152d6405839fe?","en-US,en;q=0.9","6a020761171e2014c686e110","6a230fc25d128c9d1b56061a","6a26d6ecf84152d6405839fe?","6a020761171e2014c686e110","6a230fc25d128c9d1b56061a","6a26d6ecf84152d6405839fe?","30","[5,7,15,11,21,6,1,9,22,10,29,25,12,3,2,19,20,16,14,8,30,17,26,23,24,4,28,27,18,13]","[""U5"",""U7"",""P15"",""P11"",""P21"",""P6"",""U1"",""U9"",""U22"",""P10"",""U29"",""U25"",""U12"",""P3"",""P2"",""P19"",""P20"",""P16"",""U14"",""P8"",""U30"",""U17"",""P26"",""U23"",""P24"",""P4"",""P28"",""P27"",""U18"",""U13""]","[""P5"",""P7"",""U15"",""U11"",""U21"",""U6"",""P1"",""P9"",""P22"",""U10"",""P29"",""P25"",""P12"",""U3"",""U2"",""U19"",""U20"",""U16"",""P14"",""U8"",""P30"",""P17"",""U26"",""P23"",""U24"",""U4"",""U28"",""U27"",""P18"",""P13""]","5","5","0","0","0","0","","null","[""suitcase_v2.mp4""]","null","segmentation_video","","","","","","","","","suitcase_v2.mp4","suitcase","Unpredictable","[2.914031,4.92318,8.911311,12.078515,13.509372,16.835377,21.906532,24.250868]","8","","U25","25","1","12","1.4308570000000014","false","false","false","","false","0","0","false","false","false","false",""
"","","","","","survey-multi-choice","66","2.0.0","822175","80","1","2026-06-08 14:53:35","segmentation_norming_randomized_order_maxrun_attention_v4","88.97.165.187","Mozilla/5.0 (Windows NT 10.0; Win64; x64) AppleWebKit/537.36 (KHTML, like Gecko) Chrome/149.0.0.0 Safari/537.36","WebKit","Chrome","149.0.0.0","Windows","10.0","https://uencdihehs.cognition.run/?PROLIFIC_PID=6a020761171e2014c686e110&STUDY_ID=6a230fc25d128c9d1b56061a&STUDY_ID=6a230fc25d128c9d1b56061a&SESSION_ID=6a26d6ecf84152d6405839fe?PROLIFIC_PID=6a020761171e2014c686e110&SESSION_ID=6a26d6ecf84152d6405839fe?","en-US,en;q=0.9","6a020761171e2014c686e110","6a230fc25d128c9d1b56061a","6a26d6ecf84152d6405839fe?","6a020761171e2014c686e110","6a230fc25d128c9d1b56061a","6a26d6ecf84152d6405839fe?","30","[5,7,15,11,21,6,1,9,22,10,29,25,12,3,2,19,20,16,14,8,30,17,26,23,24,4,28,27,18,13]","[""U5"",""U7"",""P15"",""P11"",""P21"",""P6"",""U1"",""U9"",""U22"",""P10"",""U29"",""U25"",""U12"",""P3"",""P2"",""P19"",""P20"",""P16"",""U14"",""P8"",""U30"",""U17"",""P26"",""U23"",""P24"",""P4"",""P28"",""P27"",""U18"",""U13""]","[""P5"",""P7"",""U15"",""U11"",""U21"",""U6"",""P1"",""P9"",""P22"",""U10"",""P29"",""P25"",""P12"",""U3"",""U2"",""U19"",""U20"",""U16"",""P14"",""U8"",""P30"",""P17"",""U26"",""P23"",""U24"",""U4"",""U28"",""U27"",""P18"",""P13""]","5","5","0","0","0","0","","2883","","{""confidence_rating"":""Moderately confident""}","confidence_question","[0]","","","","","","","","","suitcase","Unpredictable","","","","U25","25","1","12","","","","","","","","","","","","","Moderately confident"
"","","","","","video-keyboard-response","67","2.0.0","857971","80","1","2026-06-08 14:53:35","segmentation_norming_randomized_order_maxrun_attention_v4","88.97.165.187","Mozilla/5.0 (Windows NT 10.0; Win64; x64) AppleWebKit/537.36 (KHTML, like Gecko) Chrome/149.0.0.0 Safari/537.36","WebKit","Chrome","149.0.0.0","Windows","10.0","https://uencdihehs.cognition.run/?PROLIFIC_PID=6a020761171e2014c686e110&STUDY_ID=6a230fc25d128c9d1b56061a&STUDY_ID=6a230fc25d128c9d1b56061a&SESSION_ID=6a26d6ecf84152d6405839fe?PROLIFIC_PID=6a020761171e2014c686e110&SESSION_ID=6a26d6ecf84152d6405839fe?","en-US,en;q=0.9","6a020761171e2014c686e110","6a230fc25d128c9d1b56061a","6a26d6ecf84152d6405839fe?","6a020761171e2014c686e110","6a230fc25d128c9d1b56061a","6a26d6ecf84152d6405839fe?","30","[5,7,15,11,21,6,1,9,22,10,29,25,12,3,2,19,20,16,14,8,30,17,26,23,24,4,28,27,18,13]","[""U5"",""U7"",""P15"",""P11"",""P21"",""P6"",""U1"",""U9"",""U22"",""P10"",""U29"",""U25"",""U12"",""P3"",""P2"",""P19"",""P20"",""P16"",""U14"",""P8"",""U30"",""U17"",""P26"",""U23"",""P24"",""P4"",""P28"",""P27"",""U18"",""U13""]","[""P5"",""P7"",""U15"",""U11"",""U21"",""U6"",""P1"",""P9"",""P22"",""U10"",""P29"",""P25"",""P12"",""U3"",""U2"",""U19"",""U20"",""U16"",""P14"",""U8"",""P30"",""P17"",""U26"",""P23"",""U24"",""U4"",""U28"",""U27"",""P18"",""P13""]","5","5","0","0","0","0","","null","[""football_v2.mp4""]","null","segmentation_video","","","","","","","","","football_v2.mp4","football","Unpredictable","[2.425669,4.89111,12.245863,15.334055,18.874039,22.710048,26.851454,33.116889,34.659252]","9","","U12","12","1","13","1.5423630000000017","false","false","false","","false","0","0","false","false","false","false",""
"","","","","","survey-multi-choice","70","2.0.0","860475","80","1","2026-06-08 14:53:35","segmentation_norming_randomized_order_maxrun_attention_v4","88.97.165.187","Mozilla/5.0 (Windows NT 10.0; Win64; x64) AppleWebKit/537.36 (KHTML, like Gecko) Chrome/149.0.0.0 Safari/537.36","WebKit","Chrome","149.0.0.0","Windows","10.0","https://uencdihehs.cognition.run/?PROLIFIC_PID=6a020761171e2014c686e110&STUDY_ID=6a230fc25d128c9d1b56061a&STUDY_ID=6a230fc25d128c9d1b56061a&SESSION_ID=6a26d6ecf84152d6405839fe?PROLIFIC_PID=6a020761171e2014c686e110&SESSION_ID=6a26d6ecf84152d6405839fe?","en-US,en;q=0.9","6a020761171e2014c686e110","6a230fc25d128c9d1b56061a","6a26d6ecf84152d6405839fe?","6a020761171e2014c686e110","6a230fc25d128c9d1b56061a","6a26d6ecf84152d6405839fe?","30","[5,7,15,11,21,6,1,9,22,10,29,25,12,3,2,19,20,16,14,8,30,17,26,23,24,4,28,27,18,13]","[""U5"",""U7"",""P15"",""P11"",""P21"",""P6"",""U1"",""U9"",""U22"",""P10"",""U29"",""U25"",""U12"",""P3"",""P2"",""P19"",""P20"",""P16"",""U14"",""P8"",""U30"",""U17"",""P26"",""U23"",""P24"",""P4"",""P28"",""P27"",""U18"",""U13""]","[""P5"",""P7"",""U15"",""U11"",""U21"",""U6"",""P1"",""P9"",""P22"",""U10"",""P29"",""P25"",""P12"",""U3"",""U2"",""U19"",""U20"",""U16"",""P14"",""U8"",""P30"",""P17"",""U26"",""P23"",""U24"",""U4"",""U28"",""U27"",""P18"",""P13""]","5","5","0","0","0","0","","2504","","{""confidence_rating"":""Moderately confident""}","confidence_question","[0]","","","","","","","","","football","Unpredictable","","","","U12","12","1","13","","","","","","","","","","","","","Moderately confident"
"","","","","","video-keyboard-response","71","2.0.0","879691","80","1","2026-06-08 14:53:35","segmentation_norming_randomized_order_maxrun_attention_v4","88.97.165.187","Mozilla/5.0 (Windows NT 10.0; Win64; x64) AppleWebKit/537.36 (KHTML, like Gecko) Chrome/149.0.0.0 Safari/537.36","WebKit","Chrome","149.0.0.0","Windows","10.0","https://uencdihehs.cognition.run/?PROLIFIC_PID=6a020761171e2014c686e110&STUDY_ID=6a230fc25d128c9d1b56061a&STUDY_ID=6a230fc25d128c9d1b56061a&SESSION_ID=6a26d6ecf84152d6405839fe?PROLIFIC_PID=6a020761171e2014c686e110&SESSION_ID=6a26d6ecf84152d6405839fe?","en-US,en;q=0.9","6a020761171e2014c686e110","6a230fc25d128c9d1b56061a","6a26d6ecf84152d6405839fe?","6a020761171e2014c686e110","6a230fc25d128c9d1b56061a","6a26d6ecf84152d6405839fe?","30","[5,7,15,11,21,6,1,9,22,10,29,25,12,3,2,19,20,16,14,8,30,17,26,23,24,4,28,27,18,13]","[""U5"",""U7"",""P15"",""P11"",""P21"",""P6"",""U1"",""U9"",""U22"",""P10"",""U29"",""U25"",""U12"",""P3"",""P2"",""P19"",""P20"",""P16"",""U14"",""P8"",""U30"",""U17"",""P26"",""U23"",""P24"",""P4"",""P28"",""P27"",""U18"",""U13""]","[""P5"",""P7"",""U15"",""U11"",""U21"",""U6"",""P1"",""P9"",""P22"",""U10"",""P29"",""P25"",""P12"",""U3"",""U2"",""U19"",""U20"",""U16"",""P14"",""U8"",""P30"",""P17"",""U26"",""P23"",""U24"",""U4"",""U28"",""U27"",""P18"",""P13""]","5","5","0","0","0","0","","null","[""bank_v1.mp4""]","null","segmentation_video","","","","","","","","","bank_v1.mp4","bank","Predictable","[5.50045,6.941536,8.620506,11.167034,13.22881,17.662885]","6","","P3","3","1","14","1.4410860000000003","false","false","false","","false","0","0","false","false","false","false",""
"","","","","","survey-multi-choice","74","2.0.0","882656","80","1","2026-06-08 14:53:35","segmentation_norming_randomized_order_maxrun_attention_v4","88.97.165.187","Mozilla/5.0 (Windows NT 10.0; Win64; x64) AppleWebKit/537.36 (KHTML, like Gecko) Chrome/149.0.0.0 Safari/537.36","WebKit","Chrome","149.0.0.0","Windows","10.0","https://uencdihehs.cognition.run/?PROLIFIC_PID=6a020761171e2014c686e110&STUDY_ID=6a230fc25d128c9d1b56061a&STUDY_ID=6a230fc25d128c9d1b56061a&SESSION_ID=6a26d6ecf84152d6405839fe?PROLIFIC_PID=6a020761171e2014c686e110&SESSION_ID=6a26d6ecf84152d6405839fe?","en-US,en;q=0.9","6a020761171e2014c686e110","6a230fc25d128c9d1b56061a","6a26d6ecf84152d6405839fe?","6a020761171e2014c686e110","6a230fc25d128c9d1b56061a","6a26d6ecf84152d6405839fe?","30","[5,7,15,11,21,6,1,9,22,10,29,25,12,3,2,19,20,16,14,8,30,17,26,23,24,4,28,27,18,13]","[""U5"",""U7"",""P15"",""P11"",""P21"",""P6"",""U1"",""U9"",""U22"",""P10"",""U29"",""U25"",""U12"",""P3"",""P2"",""P19"",""P20"",""P16"",""U14"",""P8"",""U30"",""U17"",""P26"",""U23"",""P24"",""P4"",""P28"",""P27"",""U18"",""U13""]","[""P5"",""P7"",""U15"",""U11"",""U21"",""U6"",""P1"",""P9"",""P22"",""U10"",""P29"",""P25"",""P12"",""U3"",""U2"",""U19"",""U20"",""U16"",""P14"",""U8"",""P30"",""P17"",""U26"",""P23"",""U24"",""U4"",""U28"",""U27"",""P18"",""P13""]","5","5","0","0","0","0","","2964","","{""confidence_rating"":""Moderately confident""}","confidence_question","[0]","","","","","","","","","bank","Predictable","","","","P3","3","1","14","","","","","","","","","","","","","Moderately confident"
"","","","","","video-keyboard-response","75","2.0.0","910511","80","1","2026-06-08 14:53:35","segmentation_norming_randomized_order_maxrun_attention_v4","88.97.165.187","Mozilla/5.0 (Windows NT 10.0; Win64; x64) AppleWebKit/537.36 (KHTML, like Gecko) Chrome/149.0.0.0 Safari/537.36","WebKit","Chrome","149.0.0.0","Windows","10.0","https://uencdihehs.cognition.run/?PROLIFIC_PID=6a020761171e2014c686e110&STUDY_ID=6a230fc25d128c9d1b56061a&STUDY_ID=6a230fc25d128c9d1b56061a&SESSION_ID=6a26d6ecf84152d6405839fe?PROLIFIC_PID=6a020761171e2014c686e110&SESSION_ID=6a26d6ecf84152d6405839fe?","en-US,en;q=0.9","6a020761171e2014c686e110","6a230fc25d128c9d1b56061a","6a26d6ecf84152d6405839fe?","6a020761171e2014c686e110","6a230fc25d128c9d1b56061a","6a26d6ecf84152d6405839fe?","30","[5,7,15,11,21,6,1,9,22,10,29,25,12,3,2,19,20,16,14,8,30,17,26,23,24,4,28,27,18,13]","[""U5"",""U7"",""P15"",""P11"",""P21"",""P6"",""U1"",""U9"",""U22"",""P10"",""U29"",""U25"",""U12"",""P3"",""P2"",""P19"",""P20"",""P16"",""U14"",""P8"",""U30"",""U17"",""P26"",""U23"",""P24"",""P4"",""P28"",""P27"",""U18"",""U13""]","[""P5"",""P7"",""U15"",""U11"",""U21"",""U6"",""P1"",""P9"",""P22"",""U10"",""P29"",""P25"",""P12"",""U3"",""U2"",""U19"",""U20"",""U16"",""P14"",""U8"",""P30"",""P17"",""U26"",""P23"",""U24"",""U4"",""U28"",""U27"",""P18"",""P13""]","5","5","0","0","0","0","","null","[""balcony_v1.mp4""]","null","segmentation_video","","","","","","","","","balcony_v1.mp4","balcony","Predictable","[1.325804,2.913889,4.721897,7.804973,10.59344,14.500075,16.467146,20.439256,24.790369]","9","","P2","2","1","15","1.5880850000000002","false","false","false","","false","0","0","false","false","false","false",""
"","","","","","survey-multi-choice","78","2.0.0","1186420","80","1","2026-06-08 14:53:35","segmentation_norming_randomized_order_maxrun_attention_v4","88.97.165.187","Mozilla/5.0 (Windows NT 10.0; Win64; x64) AppleWebKit/537.36 (KHTML, like Gecko) Chrome/149.0.0.0 Safari/537.36","WebKit","Chrome","149.0.0.0","Windows","10.0","https://uencdihehs.cognition.run/?PROLIFIC_PID=6a020761171e2014c686e110&STUDY_ID=6a230fc25d128c9d1b56061a&STUDY_ID=6a230fc25d128c9d1b56061a&SESSION_ID=6a26d6ecf84152d6405839fe?PROLIFIC_PID=6a020761171e2014c686e110&SESSION_ID=6a26d6ecf84152d6405839fe?","en-US,en;q=0.9","6a020761171e2014c686e110","6a230fc25d128c9d1b56061a","6a26d6ecf84152d6405839fe?","6a020761171e2014c686e110","6a230fc25d128c9d1b56061a","6a26d6ecf84152d6405839fe?","30","[5,7,15,11,21,6,1,9,22,10,29,25,12,3,2,19,20,16,14,8,30,17,26,23,24,4,28,27,18,13]","[""U5"",""U7"",""P15"",""P11"",""P21"",""P6"",""U1"",""U9"",""U22"",""P10"",""U29"",""U25"",""U12"",""P3"",""P2"",""P19"",""P20"",""P16"",""U14"",""P8"",""U30"",""U17"",""P26"",""U23"",""P24"",""P4"",""P28"",""P27"",""U18"",""U13""]","[""P5"",""P7"",""U15"",""U11"",""U21"",""U6"",""P1"",""P9"",""P22"",""U10"",""P29"",""P25"",""P12"",""U3"",""U2"",""U19"",""U20"",""U16"",""P14"",""U8"",""P30"",""P17"",""U26"",""P23"",""U24"",""U4"",""U28"",""U27"",""P18"",""P13""]","5","5","0","0","0","0","","275909","","{""confidence_rating"":""Moderately confident""}","confidence_question","[0]","","","","","","","","","balcony","Predictable","","","","P2","2","1","15","","","","","","","","","","","","","Moderately confident"
"","","","","","video-keyboard-response","79","2.0.0","1221682","80","1","2026-06-08 14:53:35","segmentation_norming_randomized_order_maxrun_attention_v4","88.97.165.187","Mozilla/5.0 (Windows NT 10.0; Win64; x64) AppleWebKit/537.36 (KHTML, like Gecko) Chrome/149.0.0.0 Safari/537.36","WebKit","Chrome","149.0.0.0","Windows","10.0","https://uencdihehs.cognition.run/?PROLIFIC_PID=6a020761171e2014c686e110&STUDY_ID=6a230fc25d128c9d1b56061a&STUDY_ID=6a230fc25d128c9d1b56061a&SESSION_ID=6a26d6ecf84152d6405839fe?PROLIFIC_PID=6a020761171e2014c686e110&SESSION_ID=6a26d6ecf84152d6405839fe?","en-US,en;q=0.9","6a020761171e2014c686e110","6a230fc25d128c9d1b56061a","6a26d6ecf84152d6405839fe?","6a020761171e2014c686e110","6a230fc25d128c9d1b56061a","6a26d6ecf84152d6405839fe?","30","[5,7,15,11,21,6,1,9,22,10,29,25,12,3,2,19,20,16,14,8,30,17,26,23,24,4,28,27,18,13]","[""U5"",""U7"",""P15"",""P11"",""P21"",""P6"",""U1"",""U9"",""U22"",""P10"",""U29"",""U25"",""U12"",""P3"",""P2"",""P19"",""P20"",""P16"",""U14"",""P8"",""U30"",""U17"",""P26"",""U23"",""P24"",""P4"",""P28"",""P27"",""U18"",""U13""]","[""P5"",""P7"",""U15"",""U11"",""U21"",""U6"",""P1"",""P9"",""P22"",""U10"",""P29"",""P25"",""P12"",""U3"",""U2"",""U19"",""U20"",""U16"",""P14"",""U8"",""P30"",""P17"",""U26"",""P23"",""U24"",""U4"",""U28"",""U27"",""P18"",""P13""]","5","5","0","0","0","0","","null","[""party_v1.mp4""]","null","segmentation_video","","","","","","","","","party_v1.mp4","party","Predictable","[2.144562,4.957576,9.319883,16.710776,17.721813,22.310114,25.802335,27.419016,33.9875]","9","","P19","19","1","16","1.0110370000000017","false","false","false","","false","0","0","false","false","false","false",""
"","","","","","survey-multi-choice","82","2.0.0","1231702","80","1","2026-06-08 14:53:35","segmentation_norming_randomized_order_maxrun_attention_v4","88.97.165.187","Mozilla/5.0 (Windows NT 10.0; Win64; x64) AppleWebKit/537.36 (KHTML, like Gecko) Chrome/149.0.0.0 Safari/537.36","WebKit","Chrome","149.0.0.0","Windows","10.0","https://uencdihehs.cognition.run/?PROLIFIC_PID=6a020761171e2014c686e110&STUDY_ID=6a230fc25d128c9d1b56061a&STUDY_ID=6a230fc25d128c9d1b56061a&SESSION_ID=6a26d6ecf84152d6405839fe?PROLIFIC_PID=6a020761171e2014c686e110&SESSION_ID=6a26d6ecf84152d6405839fe?","en-US,en;q=0.9","6a020761171e2014c686e110","6a230fc25d128c9d1b56061a","6a26d6ecf84152d6405839fe?","6a020761171e2014c686e110","6a230fc25d128c9d1b56061a","6a26d6ecf84152d6405839fe?","30","[5,7,15,11,21,6,1,9,22,10,29,25,12,3,2,19,20,16,14,8,30,17,26,23,24,4,28,27,18,13]","[""U5"",""U7"",""P15"",""P11"",""P21"",""P6"",""U1"",""U9"",""U22"",""P10"",""U29"",""U25"",""U12"",""P3"",""P2"",""P19"",""P20"",""P16"",""U14"",""P8"",""U30"",""U17"",""P26"",""U23"",""P24"",""P4"",""P28"",""P27"",""U18"",""U13""]","[""P5"",""P7"",""U15"",""U11"",""U21"",""U6"",""P1"",""P9"",""P22"",""U10"",""P29"",""P25"",""P12"",""U3"",""U2"",""U19"",""U20"",""U16"",""P14"",""U8"",""P30"",""P17"",""U26"",""P23"",""U24"",""U4"",""U28"",""U27"",""P18"",""P13""]","5","5","0","0","0","0","","10019","","{""confidence_rating"":""Moderately confident""}","confidence_question","[0]","","","","","","","","","party","Predictable","","","","P19","19","1","16","","","","","","","","","","","","","Moderately confident"
"","","","","","video-keyboard-response","83","2.0.0","1255322","80","1","2026-06-08 14:53:35","segmentation_norming_randomized_order_maxrun_attention_v4","88.97.165.187","Mozilla/5.0 (Windows NT 10.0; Win64; x64) AppleWebKit/537.36 (KHTML, like Gecko) Chrome/149.0.0.0 Safari/537.36","WebKit","Chrome","149.0.0.0","Windows","10.0","https://uencdihehs.cognition.run/?PROLIFIC_PID=6a020761171e2014c686e110&STUDY_ID=6a230fc25d128c9d1b56061a&STUDY_ID=6a230fc25d128c9d1b56061a&SESSION_ID=6a26d6ecf84152d6405839fe?PROLIFIC_PID=6a020761171e2014c686e110&SESSION_ID=6a26d6ecf84152d6405839fe?","en-US,en;q=0.9","6a020761171e2014c686e110","6a230fc25d128c9d1b56061a","6a26d6ecf84152d6405839fe?","6a020761171e2014c686e110","6a230fc25d128c9d1b56061a","6a26d6ecf84152d6405839fe?","30","[5,7,15,11,21,6,1,9,22,10,29,25,12,3,2,19,20,16,14,8,30,17,26,23,24,4,28,27,18,13]","[""U5"",""U7"",""P15"",""P11"",""P21"",""P6"",""U1"",""U9"",""U22"",""P10"",""U29"",""U25"",""U12"",""P3"",""P2"",""P19"",""P20"",""P16"",""U14"",""P8"",""U30"",""U17"",""P26"",""U23"",""P24"",""P4"",""P28"",""P27"",""U18"",""U13""]","[""P5"",""P7"",""U15"",""U11"",""U21"",""U6"",""P1"",""P9"",""P22"",""U10"",""P29"",""P25"",""P12"",""U3"",""U2"",""U19"",""U20"",""U16"",""P14"",""U8"",""P30"",""P17"",""U26"",""P23"",""U24"",""U4"",""U28"",""U27"",""P18"",""P13""]","5","5","0","0","0","0","","null","[""poster_v1.mp4""]","null","segmentation_video","","","","","","","","","poster_v1.mp4","poster","Predictable","[1.627103,3.061038,4.907204,8.367155,12.312497,15.831303,21.781386,22.4259]","8","","P20","20","1","17","0.6445139999999974","false","false","false","","false","0","0","false","false","false","false",""
"","","","","","survey-multi-choice","86","2.0.0","1257668","80","1","2026-06-08 14:53:35","segmentation_norming_randomized_order_maxrun_attention_v4","88.97.165.187","Mozilla/5.0 (Windows NT 10.0; Win64; x64) AppleWebKit/537.36 (KHTML, like Gecko) Chrome/149.0.0.0 Safari/537.36","WebKit","Chrome","149.0.0.0","Windows","10.0","https://uencdihehs.cognition.run/?PROLIFIC_PID=6a020761171e2014c686e110&STUDY_ID=6a230fc25d128c9d1b56061a&STUDY_ID=6a230fc25d128c9d1b56061a&SESSION_ID=6a26d6ecf84152d6405839fe?PROLIFIC_PID=6a020761171e2014c686e110&SESSION_ID=6a26d6ecf84152d6405839fe?","en-US,en;q=0.9","6a020761171e2014c686e110","6a230fc25d128c9d1b56061a","6a26d6ecf84152d6405839fe?","6a020761171e2014c686e110","6a230fc25d128c9d1b56061a","6a26d6ecf84152d6405839fe?","30","[5,7,15,11,21,6,1,9,22,10,29,25,12,3,2,19,20,16,14,8,30,17,26,23,24,4,28,27,18,13]","[""U5"",""U7"",""P15"",""P11"",""P21"",""P6"",""U1"",""U9"",""U22"",""P10"",""U29"",""U25"",""U12"",""P3"",""P2"",""P19"",""P20"",""P16"",""U14"",""P8"",""U30"",""U17"",""P26"",""U23"",""P24"",""P4"",""P28"",""P27"",""U18"",""U13""]","[""P5"",""P7"",""U15"",""U11"",""U21"",""U6"",""P1"",""P9"",""P22"",""U10"",""P29"",""P25"",""P12"",""U3"",""U2"",""U19"",""U20"",""U16"",""P14"",""U8"",""P30"",""P17"",""U26"",""P23"",""U24"",""U4"",""U28"",""U27"",""P18"",""P13""]","5","5","0","0","0","0","","2346","","{""confidence_rating"":""Moderately confident""}","confidence_question","[0]","","","","","","","","","poster","Predictable","","","","P20","20","1","17","","","","","","","","","","","","","Moderately confident"
"","","","","","video-keyboard-response","87","2.0.0","1287522","80","1","2026-06-08 14:53:35","segmentation_norming_randomized_order_maxrun_attention_v4","88.97.165.187","Mozilla/5.0 (Windows NT 10.0; Win64; x64) AppleWebKit/537.36 (KHTML, like Gecko) Chrome/149.0.0.0 Safari/537.36","WebKit","Chrome","149.0.0.0","Windows","10.0","https://uencdihehs.cognition.run/?PROLIFIC_PID=6a020761171e2014c686e110&STUDY_ID=6a230fc25d128c9d1b56061a&STUDY_ID=6a230fc25d128c9d1b56061a&SESSION_ID=6a26d6ecf84152d6405839fe?PROLIFIC_PID=6a020761171e2014c686e110&SESSION_ID=6a26d6ecf84152d6405839fe?","en-US,en;q=0.9","6a020761171e2014c686e110","6a230fc25d128c9d1b56061a","6a26d6ecf84152d6405839fe?","6a020761171e2014c686e110","6a230fc25d128c9d1b56061a","6a26d6ecf84152d6405839fe?","30","[5,7,15,11,21,6,1,9,22,10,29,25,12,3,2,19,20,16,14,8,30,17,26,23,24,4,28,27,18,13]","[""U5"",""U7"",""P15"",""P11"",""P21"",""P6"",""U1"",""U9"",""U22"",""P10"",""U29"",""U25"",""U12"",""P3"",""P2"",""P19"",""P20"",""P16"",""U14"",""P8"",""U30"",""U17"",""P26"",""U23"",""P24"",""P4"",""P28"",""P27"",""U18"",""U13""]","[""P5"",""P7"",""U15"",""U11"",""U21"",""U6"",""P1"",""P9"",""P22"",""U10"",""P29"",""P25"",""P12"",""U3"",""U2"",""U19"",""U20"",""U16"",""P14"",""U8"",""P30"",""P17"",""U26"",""P23"",""U24"",""U4"",""U28"",""U27"",""P18"",""P13""]","5","5","0","0","0","0","","null","[""mouse_v1.mp4""]","null","segmentation_video","","","","","","","","","mouse_v1.mp4","mouse","Predictable","[2.389539,5.399623,7.899957,12.416837,17.355904,22.235361,26.862093,29.356258]","8","","P16","16","1","18","2.494164999999999","false","false","false","","false","0","0","false","false","false","false",""
"","","","","","survey-multi-choice","90","2.0.0","1290562","80","1","2026-06-08 14:53:35","segmentation_norming_randomized_order_maxrun_attention_v4","88.97.165.187","Mozilla/5.0 (Windows NT 10.0; Win64; x64) AppleWebKit/537.36 (KHTML, like Gecko) Chrome/149.0.0.0 Safari/537.36","WebKit","Chrome","149.0.0.0","Windows","10.0","https://uencdihehs.cognition.run/?PROLIFIC_PID=6a020761171e2014c686e110&STUDY_ID=6a230fc25d128c9d1b56061a&STUDY_ID=6a230fc25d128c9d1b56061a&SESSION_ID=6a26d6ecf84152d6405839fe?PROLIFIC_PID=6a020761171e2014c686e110&SESSION_ID=6a26d6ecf84152d6405839fe?","en-US,en;q=0.9","6a020761171e2014c686e110","6a230fc25d128c9d1b56061a","6a26d6ecf84152d6405839fe?","6a020761171e2014c686e110","6a230fc25d128c9d1b56061a","6a26d6ecf84152d6405839fe?","30","[5,7,15,11,21,6,1,9,22,10,29,25,12,3,2,19,20,16,14,8,30,17,26,23,24,4,28,27,18,13]","[""U5"",""U7"",""P15"",""P11"",""P21"",""P6"",""U1"",""U9"",""U22"",""P10"",""U29"",""U25"",""U12"",""P3"",""P2"",""P19"",""P20"",""P16"",""U14"",""P8"",""U30"",""U17"",""P26"",""U23"",""P24"",""P4"",""P28"",""P27"",""U18"",""U13""]","[""P5"",""P7"",""U15"",""U11"",""U21"",""U6"",""P1"",""P9"",""P22"",""U10"",""P29"",""P25"",""P12"",""U3"",""U2"",""U19"",""U20"",""U16"",""P14"",""U8"",""P30"",""P17"",""U26"",""P23"",""U24"",""U4"",""U28"",""U27"",""P18"",""P13""]","5","5","0","0","0","0","","3039","","{""confidence_rating"":""Moderately confident""}","confidence_question","[0]","","","","","","","","","mouse","Predictable","","","","P16","16","1","18","","","","","","","","","","","","","Moderately confident"
"","","","","","video-keyboard-response","91","2.0.0","1320182","80","1","2026-06-08 14:53:35","segmentation_norming_randomized_order_maxrun_attention_v4","88.97.165.187","Mozilla/5.0 (Windows NT 10.0; Win64; x64) AppleWebKit/537.36 (KHTML, like Gecko) Chrome/149.0.0.0 Safari/537.36","WebKit","Chrome","149.0.0.0","Windows","10.0","https://uencdihehs.cognition.run/?PROLIFIC_PID=6a020761171e2014c686e110&STUDY_ID=6a230fc25d128c9d1b56061a&STUDY_ID=6a230fc25d128c9d1b56061a&SESSION_ID=6a26d6ecf84152d6405839fe?PROLIFIC_PID=6a020761171e2014c686e110&SESSION_ID=6a26d6ecf84152d6405839fe?","en-US,en;q=0.9","6a020761171e2014c686e110","6a230fc25d128c9d1b56061a","6a26d6ecf84152d6405839fe?","6a020761171e2014c686e110","6a230fc25d128c9d1b56061a","6a26d6ecf84152d6405839fe?","30","[5,7,15,11,21,6,1,9,22,10,29,25,12,3,2,19,20,16,14,8,30,17,26,23,24,4,28,27,18,13]","[""U5"",""U7"",""P15"",""P11"",""P21"",""P6"",""U1"",""U9"",""U22"",""P10"",""U29"",""U25"",""U12"",""P3"",""P2"",""P19"",""P20"",""P16"",""U14"",""P8"",""U30"",""U17"",""P26"",""U23"",""P24"",""P4"",""P28"",""P27"",""U18"",""U13""]","[""P5"",""P7"",""U15"",""U11"",""U21"",""U6"",""P1"",""P9"",""P22"",""U10"",""P29"",""P25"",""P12"",""U3"",""U2"",""U19"",""U20"",""U16"",""P14"",""U8"",""P30"",""P17"",""U26"",""P23"",""U24"",""U4"",""U28"",""U27"",""P18"",""P13""]","5","5","0","0","0","0","","null","[""lamp_v2.mp4""]","null","segmentation_video","","","","","","","","","lamp_v2.mp4","lamp","Unpredictable","[1.016176,5.665313,8.457699,10.73074,12.429392,17.314543,20.501594,23.744871,25.753677,29.464742]","10","","U14","14","1","19","1.6986519999999992","false","false","false","","false","0","0","false","false","false","false",""
"","","","","","survey-multi-choice","94","2.0.0","1321958","80","1","2026-06-08 14:53:35","segmentation_norming_randomized_order_maxrun_attention_v4","88.97.165.187","Mozilla/5.0 (Windows NT 10.0; Win64; x64) AppleWebKit/537.36 (KHTML, like Gecko) Chrome/149.0.0.0 Safari/537.36","WebKit","Chrome","149.0.0.0","Windows","10.0","https://uencdihehs.cognition.run/?PROLIFIC_PID=6a020761171e2014c686e110&STUDY_ID=6a230fc25d128c9d1b56061a&STUDY_ID=6a230fc25d128c9d1b56061a&SESSION_ID=6a26d6ecf84152d6405839fe?PROLIFIC_PID=6a020761171e2014c686e110&SESSION_ID=6a26d6ecf84152d6405839fe?","en-US,en;q=0.9","6a020761171e2014c686e110","6a230fc25d128c9d1b56061a","6a26d6ecf84152d6405839fe?","6a020761171e2014c686e110","6a230fc25d128c9d1b56061a","6a26d6ecf84152d6405839fe?","30","[5,7,15,11,21,6,1,9,22,10,29,25,12,3,2,19,20,16,14,8,30,17,26,23,24,4,28,27,18,13]","[""U5"",""U7"",""P15"",""P11"",""P21"",""P6"",""U1"",""U9"",""U22"",""P10"",""U29"",""U25"",""U12"",""P3"",""P2"",""P19"",""P20"",""P16"",""U14"",""P8"",""U30"",""U17"",""P26"",""U23"",""P24"",""P4"",""P28"",""P27"",""U18"",""U13""]","[""P5"",""P7"",""U15"",""U11"",""U21"",""U6"",""P1"",""P9"",""P22"",""U10"",""P29"",""P25"",""P12"",""U3"",""U2"",""U19"",""U20"",""U16"",""P14"",""U8"",""P30"",""P17"",""U26"",""P23"",""U24"",""U4"",""U28"",""U27"",""P18"",""P13""]","5","5","0","0","0","0","","1775","","{""confidence_rating"":""Moderately confident""}","confidence_question","[0]","","","","","","","","","lamp","Unpredictable","","","","U14","14","1","19","","","","","","","","","","","","","Moderately confident"
"","","","","","video-keyboard-response","95","2.0.0","1361482","80","1","2026-06-08 14:53:35","segmentation_norming_randomized_order_maxrun_attention_v4","88.97.165.187","Mozilla/5.0 (Windows NT 10.0; Win64; x64) AppleWebKit/537.36 (KHTML, like Gecko) Chrome/149.0.0.0 Safari/537.36","WebKit","Chrome","149.0.0.0","Windows","10.0","https://uencdihehs.cognition.run/?PROLIFIC_PID=6a020761171e2014c686e110&STUDY_ID=6a230fc25d128c9d1b56061a&STUDY_ID=6a230fc25d128c9d1b56061a&SESSION_ID=6a26d6ecf84152d6405839fe?PROLIFIC_PID=6a020761171e2014c686e110&SESSION_ID=6a26d6ecf84152d6405839fe?","en-US,en;q=0.9","6a020761171e2014c686e110","6a230fc25d128c9d1b56061a","6a26d6ecf84152d6405839fe?","6a020761171e2014c686e110","6a230fc25d128c9d1b56061a","6a26d6ecf84152d6405839fe?","30","[5,7,15,11,21,6,1,9,22,10,29,25,12,3,2,19,20,16,14,8,30,17,26,23,24,4,28,27,18,13]","[""U5"",""U7"",""P15"",""P11"",""P21"",""P6"",""U1"",""U9"",""U22"",""P10"",""U29"",""U25"",""U12"",""P3"",""P2"",""P19"",""P20"",""P16"",""U14"",""P8"",""U30"",""U17"",""P26"",""U23"",""P24"",""P4"",""P28"",""P27"",""U18"",""U13""]","[""P5"",""P7"",""U15"",""U11"",""U21"",""U6"",""P1"",""P9"",""P22"",""U10"",""P29"",""P25"",""P12"",""U3"",""U2"",""U19"",""U20"",""U16"",""P14"",""U8"",""P30"",""P17"",""U26"",""P23"",""U24"",""U4"",""U28"",""U27"",""P18"",""P13""]","5","5","0","0","0","0","","null","[""car_v1.mp4""]","null","segmentation_video","","","","","","","","","car_v1.mp4","car","Predictable","[2.523139,4.442102,8.141055,10.505002,14.326461,16.975164,21.007322,24.182284,25.758379,28.136411,29.993487,34.383419,37.018835]","13","","P8","8","1","20","1.5760950000000022","false","false","false","","false","0","0","false","false","false","false",""
"","","","","","survey-multi-choice","98","2.0.0","1363805","80","1","2026-06-08 14:53:35","segmentation_norming_randomized_order_maxrun_attention_v4","88.97.165.187","Mozilla/5.0 (Windows NT 10.0; Win64; x64) AppleWebKit/537.36 (KHTML, like Gecko) Chrome/149.0.0.0 Safari/537.36","WebKit","Chrome","149.0.0.0","Windows","10.0","https://uencdihehs.cognition.run/?PROLIFIC_PID=6a020761171e2014c686e110&STUDY_ID=6a230fc25d128c9d1b56061a&STUDY_ID=6a230fc25d128c9d1b56061a&SESSION_ID=6a26d6ecf84152d6405839fe?PROLIFIC_PID=6a020761171e2014c686e110&SESSION_ID=6a26d6ecf84152d6405839fe?","en-US,en;q=0.9","6a020761171e2014c686e110","6a230fc25d128c9d1b56061a","6a26d6ecf84152d6405839fe?","6a020761171e2014c686e110","6a230fc25d128c9d1b56061a","6a26d6ecf84152d6405839fe?","30","[5,7,15,11,21,6,1,9,22,10,29,25,12,3,2,19,20,16,14,8,30,17,26,23,24,4,28,27,18,13]","[""U5"",""U7"",""P15"",""P11"",""P21"",""P6"",""U1"",""U9"",""U22"",""P10"",""U29"",""U25"",""U12"",""P3"",""P2"",""P19"",""P20"",""P16"",""U14"",""P8"",""U30"",""U17"",""P26"",""U23"",""P24"",""P4"",""P28"",""P27"",""U18"",""U13""]","[""P5"",""P7"",""U15"",""U11"",""U21"",""U6"",""P1"",""P9"",""P22"",""U10"",""P29"",""P25"",""P12"",""U3"",""U2"",""U19"",""U20"",""U16"",""P14"",""U8"",""P30"",""P17"",""U26"",""P23"",""U24"",""U4"",""U28"",""U27"",""P18"",""P13""]","5","5","0","0","0","0","","2322","","{""confidence_rating"":""Moderately confident""}","confidence_question","[0]","","","","","","","","","car","Predictable","","","","P8","8","1","20","","","","","","","","","","","","","Moderately confident"
"","","","","","video-keyboard-response","99","2.0.0","1400442","80","1","2026-06-08 14:53:35","segmentation_norming_randomized_order_maxrun_attention_v4","88.97.165.187","Mozilla/5.0 (Windows NT 10.0; Win64; x64) AppleWebKit/537.36 (KHTML, like Gecko) Chrome/149.0.0.0 Safari/537.36","WebKit","Chrome","149.0.0.0","Windows","10.0","https://uencdihehs.cognition.run/?PROLIFIC_PID=6a020761171e2014c686e110&STUDY_ID=6a230fc25d128c9d1b56061a&STUDY_ID=6a230fc25d128c9d1b56061a&SESSION_ID=6a26d6ecf84152d6405839fe?PROLIFIC_PID=6a020761171e2014c686e110&SESSION_ID=6a26d6ecf84152d6405839fe?","en-US,en;q=0.9","6a020761171e2014c686e110","6a230fc25d128c9d1b56061a","6a26d6ecf84152d6405839fe?","6a020761171e2014c686e110","6a230fc25d128c9d1b56061a","6a26d6ecf84152d6405839fe?","30","[5,7,15,11,21,6,1,9,22,10,29,25,12,3,2,19,20,16,14,8,30,17,26,23,24,4,28,27,18,13]","[""U5"",""U7"",""P15"",""P11"",""P21"",""P6"",""U1"",""U9"",""U22"",""P10"",""U29"",""U25"",""U12"",""P3"",""P2"",""P19"",""P20"",""P16"",""U14"",""P8"",""U30"",""U17"",""P26"",""U23"",""P24"",""P4"",""P28"",""P27"",""U18"",""U13""]","[""P5"",""P7"",""U15"",""U11"",""U21"",""U6"",""P1"",""P9"",""P22"",""U10"",""P29"",""P25"",""P12"",""U3"",""U2"",""U19"",""U20"",""U16"",""P14"",""U8"",""P30"",""P17"",""U26"",""P23"",""U24"",""U4"",""U28"",""U27"",""P18"",""P13""]","5","5","0","0","0","0","","null","[""whiteboard_v2.mp4""]","null","segmentation_video","","","","","","","","","whiteboard_v2.mp4","whiteboard","Unpredictable","[3.668736,8.719983,14.87902,20.784454,28.280341,32.977533]","6","","U30","30","1","21","4.697192000000001","false","false","false","","false","0","0","false","false","false","false",""
"","","","","","survey-multi-choice","102","2.0.0","1403790","80","1","2026-06-08 14:53:35","segmentation_norming_randomized_order_maxrun_attention_v4","88.97.165.187","Mozilla/5.0 (Windows NT 10.0; Win64; x64) AppleWebKit/537.36 (KHTML, like Gecko) Chrome/149.0.0.0 Safari/537.36","WebKit","Chrome","149.0.0.0","Windows","10.0","https://uencdihehs.cognition.run/?PROLIFIC_PID=6a020761171e2014c686e110&STUDY_ID=6a230fc25d128c9d1b56061a&STUDY_ID=6a230fc25d128c9d1b56061a&SESSION_ID=6a26d6ecf84152d6405839fe?PROLIFIC_PID=6a020761171e2014c686e110&SESSION_ID=6a26d6ecf84152d6405839fe?","en-US,en;q=0.9","6a020761171e2014c686e110","6a230fc25d128c9d1b56061a","6a26d6ecf84152d6405839fe?","6a020761171e2014c686e110","6a230fc25d128c9d1b56061a","6a26d6ecf84152d6405839fe?","30","[5,7,15,11,21,6,1,9,22,10,29,25,12,3,2,19,20,16,14,8,30,17,26,23,24,4,28,27,18,13]","[""U5"",""U7"",""P15"",""P11"",""P21"",""P6"",""U1"",""U9"",""U22"",""P10"",""U29"",""U25"",""U12"",""P3"",""P2"",""P19"",""P20"",""P16"",""U14"",""P8"",""U30"",""U17"",""P26"",""U23"",""P24"",""P4"",""P28"",""P27"",""U18"",""U13""]","[""P5"",""P7"",""U15"",""U11"",""U21"",""U6"",""P1"",""P9"",""P22"",""U10"",""P29"",""P25"",""P12"",""U3"",""U2"",""U19"",""U20"",""U16"",""P14"",""U8"",""P30"",""P17"",""U26"",""P23"",""U24"",""U4"",""U28"",""U27"",""P18"",""P13""]","5","5","0","0","0","0","","3348","","{""confidence_rating"":""Neutral""}","confidence_question","[0]","","","","","","","","","whiteboard","Unpredictable","","","","U30","30","1","21","","","","","","","","","","","","","Neutral"
