"success","timeout","failed_images","failed_audio","failed_video","trial_type","trial_index","plugin_version","time_elapsed","run_id","condition","recorded_at","source_code_version","ip","user_agent","device","browser","browser_version","platform","platform_version","referer","accept_language","PROLIFIC_PID","STUDY_ID","SESSION_ID","subject_id","study_id","session_id","pair_count","randomized_pair_order","block1_codes","block2_codes","max_run_block1","max_run_block2","fullscreen_exit_count","tab_switch_count","video_attention_failure_count","total_attention_violation_count","view_history","rt","stimulus","response","trial_kind","question_order","spacebar_question_answer","attention_question_answer","spacebar_question_correct","attention_question_correct","instruction_check_passed","demo_index","demo_code","stimulus_file","stimulus_name","predictability","boundary_times_sec","boundary_count","value","video_code","pair_number","block","global_position_in_block","min_press_gap_sec","no_press_failure","rapid_press_failure","video_attention_failed","video_attention_failure_type","last_video_had_any_attention_violation","current_video_fullscreen_exit_count","current_video_tab_switch_count","current_video_had_fullscreen_exit","current_video_had_tab_switch","current_video_had_video_attention_failure","skipped_video_debug","confidence_rating"
"true","false","[]","[]","[]","preload","0","2.0.0","5434","101","1","2026-06-08 20:19:07","segmentation_norming_randomized_order_maxrun_attention_v4","76.32.236.39","Mozilla/5.0 (X11; Linux x86_64) AppleWebKit/537.36 (KHTML, like Gecko) Chrome/142.0.0.0 Safari/537.36","WebKit","Chrome","142.0.0.0","Linux","","https://uencdihehs.cognition.run/?PROLIFIC_PID=69886a7e4ed41aea28fefced&STUDY_ID=6a270c2e609d6ae583c06396&STUDY_ID=6a270c2e609d6ae583c06396&SESSION_ID=6a27231e848baeb2f820669b?PROLIFIC_PID=69886a7e4ed41aea28fefced&SESSION_ID=6a27231e848baeb2f820669b?","en-US,en;q=0.9","69886a7e4ed41aea28fefced","6a270c2e609d6ae583c06396","6a27231e848baeb2f820669b?","69886a7e4ed41aea28fefced","6a270c2e609d6ae583c06396","6a27231e848baeb2f820669b?","30","[6,2,23,5,30,19,21,9,15,20,4,8,18,26,27,14,17,29,11,3,16,10,24,13,1,12,22,25,7,28]","[""U6"",""P2"",""U23"",""P5"",""P30"",""P19"",""P21"",""U9"",""U15"",""P20"",""U4"",""U8"",""U18"",""U26"",""P27"",""U14"",""P17"",""U29"",""U11"",""U3"",""P16"",""U10"",""P24"",""P13"",""U1"",""U12"",""U22"",""U25"",""P7"",""U28""]","[""P6"",""U2"",""P23"",""U5"",""U30"",""U19"",""U21"",""P9"",""P15"",""U20"",""P4"",""P8"",""P18"",""P26"",""U27"",""P14"",""U17"",""P29"",""P11"",""P3"",""U16"",""P10"",""U24"",""U13"",""P1"",""P12"",""P22"",""P25"",""U7"",""P28""]","4","4","0","0","1","1","","","","","","","","","","","","","","","","","","","","","","","","","","","","","","","","","","","",""
"","","","","","instructions","1","2.0.0","21955","101","1","2026-06-08 20:19:07","segmentation_norming_randomized_order_maxrun_attention_v4","76.32.236.39","Mozilla/5.0 (X11; Linux x86_64) AppleWebKit/537.36 (KHTML, like Gecko) Chrome/142.0.0.0 Safari/537.36","WebKit","Chrome","142.0.0.0","Linux","","https://uencdihehs.cognition.run/?PROLIFIC_PID=69886a7e4ed41aea28fefced&STUDY_ID=6a270c2e609d6ae583c06396&STUDY_ID=6a270c2e609d6ae583c06396&SESSION_ID=6a27231e848baeb2f820669b?PROLIFIC_PID=69886a7e4ed41aea28fefced&SESSION_ID=6a27231e848baeb2f820669b?","en-US,en;q=0.9","69886a7e4ed41aea28fefced","6a270c2e609d6ae583c06396","6a27231e848baeb2f820669b?","69886a7e4ed41aea28fefced","6a270c2e609d6ae583c06396","6a27231e848baeb2f820669b?","30","[6,2,23,5,30,19,21,9,15,20,4,8,18,26,27,14,17,29,11,3,16,10,24,13,1,12,22,25,7,28]","[""U6"",""P2"",""U23"",""P5"",""P30"",""P19"",""P21"",""U9"",""U15"",""P20"",""U4"",""U8"",""U18"",""U26"",""P27"",""U14"",""P17"",""U29"",""U11"",""U3"",""P16"",""U10"",""P24"",""P13"",""U1"",""U12"",""U22"",""U25"",""P7"",""U28""]","[""P6"",""U2"",""P23"",""U5"",""U30"",""U19"",""U21"",""P9"",""P15"",""U20"",""P4"",""P8"",""P18"",""P26"",""U27"",""P14"",""U17"",""P29"",""P11"",""P3"",""U16"",""P10"",""U24"",""U13"",""P1"",""P12"",""P22"",""P25"",""U7"",""P28""]","4","4","0","0","1","1","[{""page_index"":0,""viewing_time"":16520}]","16520","","","","","","","","","","","","","","","","","","","","","","","","","","","","","","","","","",""
"true","","","","","fullscreen","2","2.0.0","25209","101","1","2026-06-08 20:19:07","segmentation_norming_randomized_order_maxrun_attention_v4","76.32.236.39","Mozilla/5.0 (X11; Linux x86_64) AppleWebKit/537.36 (KHTML, like Gecko) Chrome/142.0.0.0 Safari/537.36","WebKit","Chrome","142.0.0.0","Linux","","https://uencdihehs.cognition.run/?PROLIFIC_PID=69886a7e4ed41aea28fefced&STUDY_ID=6a270c2e609d6ae583c06396&STUDY_ID=6a270c2e609d6ae583c06396&SESSION_ID=6a27231e848baeb2f820669b?PROLIFIC_PID=69886a7e4ed41aea28fefced&SESSION_ID=6a27231e848baeb2f820669b?","en-US,en;q=0.9","69886a7e4ed41aea28fefced","6a270c2e609d6ae583c06396","6a27231e848baeb2f820669b?","69886a7e4ed41aea28fefced","6a270c2e609d6ae583c06396","6a27231e848baeb2f820669b?","30","[6,2,23,5,30,19,21,9,15,20,4,8,18,26,27,14,17,29,11,3,16,10,24,13,1,12,22,25,7,28]","[""U6"",""P2"",""U23"",""P5"",""P30"",""P19"",""P21"",""U9"",""U15"",""P20"",""U4"",""U8"",""U18"",""U26"",""P27"",""U14"",""P17"",""U29"",""U11"",""U3"",""P16"",""U10"",""P24"",""P13"",""U1"",""U12"",""U22"",""U25"",""P7"",""U28""]","[""P6"",""U2"",""P23"",""U5"",""U30"",""U19"",""U21"",""P9"",""P15"",""U20"",""P4"",""P8"",""P18"",""P26"",""U27"",""P14"",""U17"",""P29"",""P11"",""P3"",""U16"",""P10"",""U24"",""U13"",""P1"",""P12"",""P22"",""P25"",""U7"",""P28""]","4","4","0","0","1","1","","2252","","","","","","","","","","","","","","","","","","","","","","","","","","","","","","","","","",""
"","","","","","html-button-response","3","2.0.0","34449","101","1","2026-06-08 20:19:07","segmentation_norming_randomized_order_maxrun_attention_v4","76.32.236.39","Mozilla/5.0 (X11; Linux x86_64) AppleWebKit/537.36 (KHTML, like Gecko) Chrome/142.0.0.0 Safari/537.36","WebKit","Chrome","142.0.0.0","Linux","","https://uencdihehs.cognition.run/?PROLIFIC_PID=69886a7e4ed41aea28fefced&STUDY_ID=6a270c2e609d6ae583c06396&STUDY_ID=6a270c2e609d6ae583c06396&SESSION_ID=6a27231e848baeb2f820669b?PROLIFIC_PID=69886a7e4ed41aea28fefced&SESSION_ID=6a27231e848baeb2f820669b?","en-US,en;q=0.9","69886a7e4ed41aea28fefced","6a270c2e609d6ae583c06396","6a27231e848baeb2f820669b?","69886a7e4ed41aea28fefced","6a270c2e609d6ae583c06396","6a27231e848baeb2f820669b?","30","[6,2,23,5,30,19,21,9,15,20,4,8,18,26,27,14,17,29,11,3,16,10,24,13,1,12,22,25,7,28]","[""U6"",""P2"",""U23"",""P5"",""P30"",""P19"",""P21"",""U9"",""U15"",""P20"",""U4"",""U8"",""U18"",""U26"",""P27"",""U14"",""P17"",""U29"",""U11"",""U3"",""P16"",""U10"",""P24"",""P13"",""U1"",""U12"",""U22"",""U25"",""P7"",""U28""]","[""P6"",""U2"",""P23"",""U5"",""U30"",""U19"",""U21"",""P9"",""P15"",""U20"",""P4"",""P8"",""P18"",""P26"",""U27"",""P14"",""U17"",""P29"",""P11"",""P3"",""U16"",""P10"",""U24"",""U13"",""P1"",""P12"",""P22"",""P25"",""U7"",""P28""]","4","4","0","0","1","1","","9239","The experiment requires continuous attention and full-screen participation throughout the task.<br><br>You may be asked to exit the experiment and cancel your participation if you exit Full Screen Mode, switch tabs, or fail to meet the attention criteria more than the allowed number of times.<br><br>Please read the following instructions carefully.","0","","","","","","","","","","","","","","","","","","","","","","","","","","","","","","","",""
"","","","","","instructions","4","2.0.0","56768","101","1","2026-06-08 20:19:07","segmentation_norming_randomized_order_maxrun_attention_v4","76.32.236.39","Mozilla/5.0 (X11; Linux x86_64) AppleWebKit/537.36 (KHTML, like Gecko) Chrome/142.0.0.0 Safari/537.36","WebKit","Chrome","142.0.0.0","Linux","","https://uencdihehs.cognition.run/?PROLIFIC_PID=69886a7e4ed41aea28fefced&STUDY_ID=6a270c2e609d6ae583c06396&STUDY_ID=6a270c2e609d6ae583c06396&SESSION_ID=6a27231e848baeb2f820669b?PROLIFIC_PID=69886a7e4ed41aea28fefced&SESSION_ID=6a27231e848baeb2f820669b?","en-US,en;q=0.9","69886a7e4ed41aea28fefced","6a270c2e609d6ae583c06396","6a27231e848baeb2f820669b?","69886a7e4ed41aea28fefced","6a270c2e609d6ae583c06396","6a27231e848baeb2f820669b?","30","[6,2,23,5,30,19,21,9,15,20,4,8,18,26,27,14,17,29,11,3,16,10,24,13,1,12,22,25,7,28]","[""U6"",""P2"",""U23"",""P5"",""P30"",""P19"",""P21"",""U9"",""U15"",""P20"",""U4"",""U8"",""U18"",""U26"",""P27"",""U14"",""P17"",""U29"",""U11"",""U3"",""P16"",""U10"",""P24"",""P13"",""U1"",""U12"",""U22"",""U25"",""P7"",""U28""]","[""P6"",""U2"",""P23"",""U5"",""U30"",""U19"",""U21"",""P9"",""P15"",""U20"",""P4"",""P8"",""P18"",""P26"",""U27"",""P14"",""U17"",""P29"",""P11"",""P3"",""U16"",""P10"",""U24"",""U13"",""P1"",""P12"",""P22"",""P25"",""U7"",""P28""]","4","4","0","0","1","1","[{""page_index"":0,""viewing_time"":22318}]","22318","","","","","","","","","","","","","","","","","","","","","","","","","","","","","","","","","",""
"","","","","","html-button-response","5","2.0.0","63579","101","1","2026-06-08 20:19:07","segmentation_norming_randomized_order_maxrun_attention_v4","76.32.236.39","Mozilla/5.0 (X11; Linux x86_64) AppleWebKit/537.36 (KHTML, like Gecko) Chrome/142.0.0.0 Safari/537.36","WebKit","Chrome","142.0.0.0","Linux","","https://uencdihehs.cognition.run/?PROLIFIC_PID=69886a7e4ed41aea28fefced&STUDY_ID=6a270c2e609d6ae583c06396&STUDY_ID=6a270c2e609d6ae583c06396&SESSION_ID=6a27231e848baeb2f820669b?PROLIFIC_PID=69886a7e4ed41aea28fefced&SESSION_ID=6a27231e848baeb2f820669b?","en-US,en;q=0.9","69886a7e4ed41aea28fefced","6a270c2e609d6ae583c06396","6a27231e848baeb2f820669b?","69886a7e4ed41aea28fefced","6a270c2e609d6ae583c06396","6a27231e848baeb2f820669b?","30","[6,2,23,5,30,19,21,9,15,20,4,8,18,26,27,14,17,29,11,3,16,10,24,13,1,12,22,25,7,28]","[""U6"",""P2"",""U23"",""P5"",""P30"",""P19"",""P21"",""U9"",""U15"",""P20"",""U4"",""U8"",""U18"",""U26"",""P27"",""U14"",""P17"",""U29"",""U11"",""U3"",""P16"",""U10"",""P24"",""P13"",""U1"",""U12"",""U22"",""U25"",""P7"",""U28""]","[""P6"",""U2"",""P23"",""U5"",""U30"",""U19"",""U21"",""P9"",""P15"",""U20"",""P4"",""P8"",""P18"",""P26"",""U27"",""P14"",""U17"",""P29"",""P11"",""P3"",""U16"",""P10"",""U24"",""U13"",""P1"",""P12"",""P22"",""P25"",""U7"",""P28""]","4","4","0","0","1","1","","6808","Please pay attention when watching videos and marking boundaries.<br><br>There are several hidden attention criteria to make sure you watch the videos carefully.<br><br>If you fail these hidden criteria more than the allowed number of times, you may be asked to exit the experiment.","0","","","","","","","","","","","","","","","","","","","","","","","","","","","","","","","",""
"","","","","","survey-multi-choice","6","2.0.0","91679","101","1","2026-06-08 20:19:07","segmentation_norming_randomized_order_maxrun_attention_v4","76.32.236.39","Mozilla/5.0 (X11; Linux x86_64) AppleWebKit/537.36 (KHTML, like Gecko) Chrome/142.0.0.0 Safari/537.36","WebKit","Chrome","142.0.0.0","Linux","","https://uencdihehs.cognition.run/?PROLIFIC_PID=69886a7e4ed41aea28fefced&STUDY_ID=6a270c2e609d6ae583c06396&STUDY_ID=6a270c2e609d6ae583c06396&SESSION_ID=6a27231e848baeb2f820669b?PROLIFIC_PID=69886a7e4ed41aea28fefced&SESSION_ID=6a27231e848baeb2f820669b?","en-US,en;q=0.9","69886a7e4ed41aea28fefced","6a270c2e609d6ae583c06396","6a27231e848baeb2f820669b?","69886a7e4ed41aea28fefced","6a270c2e609d6ae583c06396","6a27231e848baeb2f820669b?","30","[6,2,23,5,30,19,21,9,15,20,4,8,18,26,27,14,17,29,11,3,16,10,24,13,1,12,22,25,7,28]","[""U6"",""P2"",""U23"",""P5"",""P30"",""P19"",""P21"",""U9"",""U15"",""P20"",""U4"",""U8"",""U18"",""U26"",""P27"",""U14"",""P17"",""U29"",""U11"",""U3"",""P16"",""U10"",""P24"",""P13"",""U1"",""U12"",""U22"",""U25"",""P7"",""U28""]","[""P6"",""U2"",""P23"",""U5"",""U30"",""U19"",""U21"",""P9"",""P15"",""U20"",""P4"",""P8"",""P18"",""P26"",""U27"",""P14"",""U17"",""P29"",""P11"",""P3"",""U16"",""P10"",""U24"",""U13"",""P1"",""P12"",""P22"",""P25"",""U7"",""P28""]","4","4","0","0","1","1","","28098","","{""spacebar_question"":""Between the smallest meaningful events or actions"",""attention_question"":""Press space bar to segment the video""}","comprehension_check","[0,1]","Between the smallest meaningful events or actions","Press space bar to segment the video","true","true","true","","","","","","","","","","","","","","","","","","","","","","","","",""
"","","","","","html-button-response","8","2.0.0","116885","101","1","2026-06-08 20:19:07","segmentation_norming_randomized_order_maxrun_attention_v4","76.32.236.39","Mozilla/5.0 (X11; Linux x86_64) AppleWebKit/537.36 (KHTML, like Gecko) Chrome/142.0.0.0 Safari/537.36","WebKit","Chrome","142.0.0.0","Linux","","https://uencdihehs.cognition.run/?PROLIFIC_PID=69886a7e4ed41aea28fefced&STUDY_ID=6a270c2e609d6ae583c06396&STUDY_ID=6a270c2e609d6ae583c06396&SESSION_ID=6a27231e848baeb2f820669b?PROLIFIC_PID=69886a7e4ed41aea28fefced&SESSION_ID=6a27231e848baeb2f820669b?","en-US,en;q=0.9","69886a7e4ed41aea28fefced","6a270c2e609d6ae583c06396","6a27231e848baeb2f820669b?","69886a7e4ed41aea28fefced","6a270c2e609d6ae583c06396","6a27231e848baeb2f820669b?","30","[6,2,23,5,30,19,21,9,15,20,4,8,18,26,27,14,17,29,11,3,16,10,24,13,1,12,22,25,7,28]","[""U6"",""P2"",""U23"",""P5"",""P30"",""P19"",""P21"",""U9"",""U15"",""P20"",""U4"",""U8"",""U18"",""U26"",""P27"",""U14"",""P17"",""U29"",""U11"",""U3"",""P16"",""U10"",""P24"",""P13"",""U1"",""U12"",""U22"",""U25"",""P7"",""U28""]","[""P6"",""U2"",""P23"",""U5"",""U30"",""U19"",""U21"",""P9"",""P15"",""U20"",""P4"",""P8"",""P18"",""P26"",""U27"",""P14"",""U17"",""P29"",""P11"",""P3"",""U16"",""P10"",""U24"",""U13"",""P1"",""P12"",""P22"",""P25"",""U7"",""P28""]","4","4","0","0","1","1","","25204","You have learned the instructions for the task! Here is a demo trial.<br><br>Like what you will do in the main experiment,<br><br> you will watch a movie clip and at the same time mark off the activity in the movie into the <strong>smallest meaningful units</strong> that seem natural and meaningful to you.<br><br>Remember, tap the <strong>SPACE BAR</strong> to mark off a boundary between two <strong>smallest meaningful units</strong> of activity.<br><br>A green bar will appear at the bottom of the screen when you press the button.<br><br>","0","","","","","","","","","","","","","","","","","","","","","","","","","","","","","","","",""
"","","","","","video-keyboard-response","9","2.0.0","133426","101","1","2026-06-08 20:19:07","segmentation_norming_randomized_order_maxrun_attention_v4","76.32.236.39","Mozilla/5.0 (X11; Linux x86_64) AppleWebKit/537.36 (KHTML, like Gecko) Chrome/142.0.0.0 Safari/537.36","WebKit","Chrome","142.0.0.0","Linux","","https://uencdihehs.cognition.run/?PROLIFIC_PID=69886a7e4ed41aea28fefced&STUDY_ID=6a270c2e609d6ae583c06396&STUDY_ID=6a270c2e609d6ae583c06396&SESSION_ID=6a27231e848baeb2f820669b?PROLIFIC_PID=69886a7e4ed41aea28fefced&SESSION_ID=6a27231e848baeb2f820669b?","en-US,en;q=0.9","69886a7e4ed41aea28fefced","6a270c2e609d6ae583c06396","6a27231e848baeb2f820669b?","69886a7e4ed41aea28fefced","6a270c2e609d6ae583c06396","6a27231e848baeb2f820669b?","30","[6,2,23,5,30,19,21,9,15,20,4,8,18,26,27,14,17,29,11,3,16,10,24,13,1,12,22,25,7,28]","[""U6"",""P2"",""U23"",""P5"",""P30"",""P19"",""P21"",""U9"",""U15"",""P20"",""U4"",""U8"",""U18"",""U26"",""P27"",""U14"",""P17"",""U29"",""U11"",""U3"",""P16"",""U10"",""P24"",""P13"",""U1"",""U12"",""U22"",""U25"",""P7"",""U28""]","[""P6"",""U2"",""P23"",""U5"",""U30"",""U19"",""U21"",""P9"",""P15"",""U20"",""P4"",""P8"",""P18"",""P26"",""U27"",""P14"",""U17"",""P29"",""P11"",""P3"",""U16"",""P10"",""U24"",""U13"",""P1"",""P12"",""P22"",""P25"",""U7"",""P28""]","4","4","0","0","1","1","","null","[""library_v1.mp4""]","null","demo_video","","","","","","","1","demo1","library_v1.mp4","library","Demo","[2.063,12.866857,14.140054,15.221907]","4","","","","","","","","","","","","","","","","","",""
"","","","","","call-function","10","2.0.0","133428","101","1","2026-06-08 20:19:07","segmentation_norming_randomized_order_maxrun_attention_v4","76.32.236.39","Mozilla/5.0 (X11; Linux x86_64) AppleWebKit/537.36 (KHTML, like Gecko) Chrome/142.0.0.0 Safari/537.36","WebKit","Chrome","142.0.0.0","Linux","","https://uencdihehs.cognition.run/?PROLIFIC_PID=69886a7e4ed41aea28fefced&STUDY_ID=6a270c2e609d6ae583c06396&STUDY_ID=6a270c2e609d6ae583c06396&SESSION_ID=6a27231e848baeb2f820669b?PROLIFIC_PID=69886a7e4ed41aea28fefced&SESSION_ID=6a27231e848baeb2f820669b?","en-US,en;q=0.9","69886a7e4ed41aea28fefced","6a270c2e609d6ae583c06396","6a27231e848baeb2f820669b?","69886a7e4ed41aea28fefced","6a270c2e609d6ae583c06396","6a27231e848baeb2f820669b?","30","[6,2,23,5,30,19,21,9,15,20,4,8,18,26,27,14,17,29,11,3,16,10,24,13,1,12,22,25,7,28]","[""U6"",""P2"",""U23"",""P5"",""P30"",""P19"",""P21"",""U9"",""U15"",""P20"",""U4"",""U8"",""U18"",""U26"",""P27"",""U14"",""P17"",""U29"",""U11"",""U3"",""P16"",""U10"",""P24"",""P13"",""U1"",""U12"",""U22"",""U25"",""P7"",""U28""]","[""P6"",""U2"",""P23"",""U5"",""U30"",""U19"",""U21"",""P9"",""P15"",""U20"",""P4"",""P8"",""P18"",""P26"",""U27"",""P14"",""U17"",""P29"",""P11"",""P3"",""U16"",""P10"",""U24"",""U13"",""P1"",""P12"",""P22"",""P25"",""U7"",""P28""]","4","4","0","0","1","1","","","","","","","","","","","","","","","","","","","","","","","","","","","","","","","","","","","",""
"","","","","","html-button-response","11","2.0.0","141648","101","1","2026-06-08 20:19:07","segmentation_norming_randomized_order_maxrun_attention_v4","76.32.236.39","Mozilla/5.0 (X11; Linux x86_64) AppleWebKit/537.36 (KHTML, like Gecko) Chrome/142.0.0.0 Safari/537.36","WebKit","Chrome","142.0.0.0","Linux","","https://uencdihehs.cognition.run/?PROLIFIC_PID=69886a7e4ed41aea28fefced&STUDY_ID=6a270c2e609d6ae583c06396&STUDY_ID=6a270c2e609d6ae583c06396&SESSION_ID=6a27231e848baeb2f820669b?PROLIFIC_PID=69886a7e4ed41aea28fefced&SESSION_ID=6a27231e848baeb2f820669b?","en-US,en;q=0.9","69886a7e4ed41aea28fefced","6a270c2e609d6ae583c06396","6a27231e848baeb2f820669b?","69886a7e4ed41aea28fefced","6a270c2e609d6ae583c06396","6a27231e848baeb2f820669b?","30","[6,2,23,5,30,19,21,9,15,20,4,8,18,26,27,14,17,29,11,3,16,10,24,13,1,12,22,25,7,28]","[""U6"",""P2"",""U23"",""P5"",""P30"",""P19"",""P21"",""U9"",""U15"",""P20"",""U4"",""U8"",""U18"",""U26"",""P27"",""U14"",""P17"",""U29"",""U11"",""U3"",""P16"",""U10"",""P24"",""P13"",""U1"",""U12"",""U22"",""U25"",""P7"",""U28""]","[""P6"",""U2"",""P23"",""U5"",""U30"",""U19"",""U21"",""P9"",""P15"",""U20"",""P4"",""P8"",""P18"",""P26"",""U27"",""P14"",""U17"",""P29"",""P11"",""P3"",""U16"",""P10"",""U24"",""U13"",""P1"",""P12"",""P22"",""P25"",""U7"",""P28""]","4","4","0","0","1","1","","8220","Usually people tend to press the button more times than you did.<br><br>As a reminder, press the <strong>SPACE BAR</strong> whenever one <strong>smallest meaningful unit</strong> of activity ends and another begins.<br><br>Let's try another demo trial.<br><br>","0","demo_feedback","","","","","","","","","","","","","","","","","","","","","","","","","","","","","","",""
"","","","","","video-keyboard-response","12","2.0.0","177330","101","1","2026-06-08 20:19:07","segmentation_norming_randomized_order_maxrun_attention_v4","76.32.236.39","Mozilla/5.0 (X11; Linux x86_64) AppleWebKit/537.36 (KHTML, like Gecko) Chrome/142.0.0.0 Safari/537.36","WebKit","Chrome","142.0.0.0","Linux","","https://uencdihehs.cognition.run/?PROLIFIC_PID=69886a7e4ed41aea28fefced&STUDY_ID=6a270c2e609d6ae583c06396&STUDY_ID=6a270c2e609d6ae583c06396&SESSION_ID=6a27231e848baeb2f820669b?PROLIFIC_PID=69886a7e4ed41aea28fefced&SESSION_ID=6a27231e848baeb2f820669b?","en-US,en;q=0.9","69886a7e4ed41aea28fefced","6a270c2e609d6ae583c06396","6a27231e848baeb2f820669b?","69886a7e4ed41aea28fefced","6a270c2e609d6ae583c06396","6a27231e848baeb2f820669b?","30","[6,2,23,5,30,19,21,9,15,20,4,8,18,26,27,14,17,29,11,3,16,10,24,13,1,12,22,25,7,28]","[""U6"",""P2"",""U23"",""P5"",""P30"",""P19"",""P21"",""U9"",""U15"",""P20"",""U4"",""U8"",""U18"",""U26"",""P27"",""U14"",""P17"",""U29"",""U11"",""U3"",""P16"",""U10"",""P24"",""P13"",""U1"",""U12"",""U22"",""U25"",""P7"",""U28""]","[""P6"",""U2"",""P23"",""U5"",""U30"",""U19"",""U21"",""P9"",""P15"",""U20"",""P4"",""P8"",""P18"",""P26"",""U27"",""P14"",""U17"",""P29"",""P11"",""P3"",""U16"",""P10"",""U24"",""U13"",""P1"",""P12"",""P22"",""P25"",""U7"",""P28""]","4","4","0","0","1","1","","null","[""garden_v1.mp4""]","null","demo_video","","","","","","","2","demo2","garden_v1.mp4","garden","Demo","[1.234359,2.712641,3.821568,4.907244,5.95068,6.86056,7.962815,9.45354,11.384427,12.785335,14.191125,15.373855,17.396309,18.987783,20.154913,21.646748,22.703349,25.438899,26.980128,29.386403,31.639819,34.14788]","22","","","","","","","","","","","","","","","","","",""
"","","","","","call-function","13","2.0.0","177331","101","1","2026-06-08 20:19:07","segmentation_norming_randomized_order_maxrun_attention_v4","76.32.236.39","Mozilla/5.0 (X11; Linux x86_64) AppleWebKit/537.36 (KHTML, like Gecko) Chrome/142.0.0.0 Safari/537.36","WebKit","Chrome","142.0.0.0","Linux","","https://uencdihehs.cognition.run/?PROLIFIC_PID=69886a7e4ed41aea28fefced&STUDY_ID=6a270c2e609d6ae583c06396&STUDY_ID=6a270c2e609d6ae583c06396&SESSION_ID=6a27231e848baeb2f820669b?PROLIFIC_PID=69886a7e4ed41aea28fefced&SESSION_ID=6a27231e848baeb2f820669b?","en-US,en;q=0.9","69886a7e4ed41aea28fefced","6a270c2e609d6ae583c06396","6a27231e848baeb2f820669b?","69886a7e4ed41aea28fefced","6a270c2e609d6ae583c06396","6a27231e848baeb2f820669b?","30","[6,2,23,5,30,19,21,9,15,20,4,8,18,26,27,14,17,29,11,3,16,10,24,13,1,12,22,25,7,28]","[""U6"",""P2"",""U23"",""P5"",""P30"",""P19"",""P21"",""U9"",""U15"",""P20"",""U4"",""U8"",""U18"",""U26"",""P27"",""U14"",""P17"",""U29"",""U11"",""U3"",""P16"",""U10"",""P24"",""P13"",""U1"",""U12"",""U22"",""U25"",""P7"",""U28""]","[""P6"",""U2"",""P23"",""U5"",""U30"",""U19"",""U21"",""P9"",""P15"",""U20"",""P4"",""P8"",""P18"",""P26"",""U27"",""P14"",""U17"",""P29"",""P11"",""P3"",""U16"",""P10"",""U24"",""U13"",""P1"",""P12"",""P22"",""P25"",""U7"",""P28""]","4","4","0","0","1","1","","","","","","","","","","","","","","","","","","","","","","","","","","","","","","","","","","","",""
"","","","","","html-button-response","14","2.0.0","184358","101","1","2026-06-08 20:19:07","segmentation_norming_randomized_order_maxrun_attention_v4","76.32.236.39","Mozilla/5.0 (X11; Linux x86_64) AppleWebKit/537.36 (KHTML, like Gecko) Chrome/142.0.0.0 Safari/537.36","WebKit","Chrome","142.0.0.0","Linux","","https://uencdihehs.cognition.run/?PROLIFIC_PID=69886a7e4ed41aea28fefced&STUDY_ID=6a270c2e609d6ae583c06396&STUDY_ID=6a270c2e609d6ae583c06396&SESSION_ID=6a27231e848baeb2f820669b?PROLIFIC_PID=69886a7e4ed41aea28fefced&SESSION_ID=6a27231e848baeb2f820669b?","en-US,en;q=0.9","69886a7e4ed41aea28fefced","6a270c2e609d6ae583c06396","6a27231e848baeb2f820669b?","69886a7e4ed41aea28fefced","6a270c2e609d6ae583c06396","6a27231e848baeb2f820669b?","30","[6,2,23,5,30,19,21,9,15,20,4,8,18,26,27,14,17,29,11,3,16,10,24,13,1,12,22,25,7,28]","[""U6"",""P2"",""U23"",""P5"",""P30"",""P19"",""P21"",""U9"",""U15"",""P20"",""U4"",""U8"",""U18"",""U26"",""P27"",""U14"",""P17"",""U29"",""U11"",""U3"",""P16"",""U10"",""P24"",""P13"",""U1"",""U12"",""U22"",""U25"",""P7"",""U28""]","[""P6"",""U2"",""P23"",""U5"",""U30"",""U19"",""U21"",""P9"",""P15"",""U20"",""P4"",""P8"",""P18"",""P26"",""U27"",""P14"",""U17"",""P29"",""P11"",""P3"",""U16"",""P10"",""U24"",""U13"",""P1"",""P12"",""P22"",""P25"",""U7"",""P28""]","4","4","0","0","1","1","","7027","Great! Hopefully you got an idea of what a meaningful unit is.<br><br>Remember that there is no right or wrong answer.<br><br>We just want to know which parts of the activity seem natural and meaningful to you.<br><br>Now the main experiment starts.<br><br>For each clip, while watching, remember to press the SPACE BAR whenever one <strong>smallest meaningful unit</strong> of activity ends and another begins.<br><br>","0","demo_feedback","","","","","","","","","","","","","","","","","","","","","","","","","","","","","","",""
"true","false","[]","[]","[]","preload","15","2.0.0","211346","101","1","2026-06-08 20:19:07","segmentation_norming_randomized_order_maxrun_attention_v4","76.32.236.39","Mozilla/5.0 (X11; Linux x86_64) AppleWebKit/537.36 (KHTML, like Gecko) Chrome/142.0.0.0 Safari/537.36","WebKit","Chrome","142.0.0.0","Linux","","https://uencdihehs.cognition.run/?PROLIFIC_PID=69886a7e4ed41aea28fefced&STUDY_ID=6a270c2e609d6ae583c06396&STUDY_ID=6a270c2e609d6ae583c06396&SESSION_ID=6a27231e848baeb2f820669b?PROLIFIC_PID=69886a7e4ed41aea28fefced&SESSION_ID=6a27231e848baeb2f820669b?","en-US,en;q=0.9","69886a7e4ed41aea28fefced","6a270c2e609d6ae583c06396","6a27231e848baeb2f820669b?","69886a7e4ed41aea28fefced","6a270c2e609d6ae583c06396","6a27231e848baeb2f820669b?","30","[6,2,23,5,30,19,21,9,15,20,4,8,18,26,27,14,17,29,11,3,16,10,24,13,1,12,22,25,7,28]","[""U6"",""P2"",""U23"",""P5"",""P30"",""P19"",""P21"",""U9"",""U15"",""P20"",""U4"",""U8"",""U18"",""U26"",""P27"",""U14"",""P17"",""U29"",""U11"",""U3"",""P16"",""U10"",""P24"",""P13"",""U1"",""U12"",""U22"",""U25"",""P7"",""U28""]","[""P6"",""U2"",""P23"",""U5"",""U30"",""U19"",""U21"",""P9"",""P15"",""U20"",""P4"",""P8"",""P18"",""P26"",""U27"",""P14"",""U17"",""P29"",""P11"",""P3"",""U16"",""P10"",""U24"",""U13"",""P1"",""P12"",""P22"",""P25"",""U7"",""P28""]","4","4","0","0","1","1","","","","","","","","","","","","","","","","","","","","","","","","","","","","","","","","","","","",""
"","","","","","video-keyboard-response","16","2.0.0","246431","101","1","2026-06-08 20:19:07","segmentation_norming_randomized_order_maxrun_attention_v4","76.32.236.39","Mozilla/5.0 (X11; Linux x86_64) AppleWebKit/537.36 (KHTML, like Gecko) Chrome/142.0.0.0 Safari/537.36","WebKit","Chrome","142.0.0.0","Linux","","https://uencdihehs.cognition.run/?PROLIFIC_PID=69886a7e4ed41aea28fefced&STUDY_ID=6a270c2e609d6ae583c06396&STUDY_ID=6a270c2e609d6ae583c06396&SESSION_ID=6a27231e848baeb2f820669b?PROLIFIC_PID=69886a7e4ed41aea28fefced&SESSION_ID=6a27231e848baeb2f820669b?","en-US,en;q=0.9","69886a7e4ed41aea28fefced","6a270c2e609d6ae583c06396","6a27231e848baeb2f820669b?","69886a7e4ed41aea28fefced","6a270c2e609d6ae583c06396","6a27231e848baeb2f820669b?","30","[6,2,23,5,30,19,21,9,15,20,4,8,18,26,27,14,17,29,11,3,16,10,24,13,1,12,22,25,7,28]","[""U6"",""P2"",""U23"",""P5"",""P30"",""P19"",""P21"",""U9"",""U15"",""P20"",""U4"",""U8"",""U18"",""U26"",""P27"",""U14"",""P17"",""U29"",""U11"",""U3"",""P16"",""U10"",""P24"",""P13"",""U1"",""U12"",""U22"",""U25"",""P7"",""U28""]","[""P6"",""U2"",""P23"",""U5"",""U30"",""U19"",""U21"",""P9"",""P15"",""U20"",""P4"",""P8"",""P18"",""P26"",""U27"",""P14"",""U17"",""P29"",""P11"",""P3"",""U16"",""P10"",""U24"",""U13"",""P1"",""P12"",""P22"",""P25"",""U7"",""P28""]","4","4","0","0","1","1","","null","[""bedding_v2.mp4""]","null","segmentation_video","","","","","","","","","bedding_v2.mp4","bedding","Unpredictable","[0.61555,3.328367,4.750035,6.661229,8.831922,10.746602,12.212405,14.652479,16.961486,18.343196,20.193757,23.129113,26.781854,29.307236,30.75007,32.786976,34.106616]","17","","U6","6","1","1","1.3196399999999997","false","false","false","","false","0","0","false","false","false","false",""
"","","","","","survey-multi-choice","19","2.0.0","253019","101","1","2026-06-08 20:19:07","segmentation_norming_randomized_order_maxrun_attention_v4","76.32.236.39","Mozilla/5.0 (X11; Linux x86_64) AppleWebKit/537.36 (KHTML, like Gecko) Chrome/142.0.0.0 Safari/537.36","WebKit","Chrome","142.0.0.0","Linux","","https://uencdihehs.cognition.run/?PROLIFIC_PID=69886a7e4ed41aea28fefced&STUDY_ID=6a270c2e609d6ae583c06396&STUDY_ID=6a270c2e609d6ae583c06396&SESSION_ID=6a27231e848baeb2f820669b?PROLIFIC_PID=69886a7e4ed41aea28fefced&SESSION_ID=6a27231e848baeb2f820669b?","en-US,en;q=0.9","69886a7e4ed41aea28fefced","6a270c2e609d6ae583c06396","6a27231e848baeb2f820669b?","69886a7e4ed41aea28fefced","6a270c2e609d6ae583c06396","6a27231e848baeb2f820669b?","30","[6,2,23,5,30,19,21,9,15,20,4,8,18,26,27,14,17,29,11,3,16,10,24,13,1,12,22,25,7,28]","[""U6"",""P2"",""U23"",""P5"",""P30"",""P19"",""P21"",""U9"",""U15"",""P20"",""U4"",""U8"",""U18"",""U26"",""P27"",""U14"",""P17"",""U29"",""U11"",""U3"",""P16"",""U10"",""P24"",""P13"",""U1"",""U12"",""U22"",""U25"",""P7"",""U28""]","[""P6"",""U2"",""P23"",""U5"",""U30"",""U19"",""U21"",""P9"",""P15"",""U20"",""P4"",""P8"",""P18"",""P26"",""U27"",""P14"",""U17"",""P29"",""P11"",""P3"",""U16"",""P10"",""U24"",""U13"",""P1"",""P12"",""P22"",""P25"",""U7"",""P28""]","4","4","0","0","1","1","","6586","","{""confidence_rating"":""Slightly unconfident""}","confidence_question","[0]","","","","","","","","","bedding","Unpredictable","","","","U6","6","1","1","","","","","","","","","","","","","Slightly unconfident"
"","","","","","video-keyboard-response","20","2.0.0","281033","101","1","2026-06-08 20:19:07","segmentation_norming_randomized_order_maxrun_attention_v4","76.32.236.39","Mozilla/5.0 (X11; Linux x86_64) AppleWebKit/537.36 (KHTML, like Gecko) Chrome/142.0.0.0 Safari/537.36","WebKit","Chrome","142.0.0.0","Linux","","https://uencdihehs.cognition.run/?PROLIFIC_PID=69886a7e4ed41aea28fefced&STUDY_ID=6a270c2e609d6ae583c06396&STUDY_ID=6a270c2e609d6ae583c06396&SESSION_ID=6a27231e848baeb2f820669b?PROLIFIC_PID=69886a7e4ed41aea28fefced&SESSION_ID=6a27231e848baeb2f820669b?","en-US,en;q=0.9","69886a7e4ed41aea28fefced","6a270c2e609d6ae583c06396","6a27231e848baeb2f820669b?","69886a7e4ed41aea28fefced","6a270c2e609d6ae583c06396","6a27231e848baeb2f820669b?","30","[6,2,23,5,30,19,21,9,15,20,4,8,18,26,27,14,17,29,11,3,16,10,24,13,1,12,22,25,7,28]","[""U6"",""P2"",""U23"",""P5"",""P30"",""P19"",""P21"",""U9"",""U15"",""P20"",""U4"",""U8"",""U18"",""U26"",""P27"",""U14"",""P17"",""U29"",""U11"",""U3"",""P16"",""U10"",""P24"",""P13"",""U1"",""U12"",""U22"",""U25"",""P7"",""U28""]","[""P6"",""U2"",""P23"",""U5"",""U30"",""U19"",""U21"",""P9"",""P15"",""U20"",""P4"",""P8"",""P18"",""P26"",""U27"",""P14"",""U17"",""P29"",""P11"",""P3"",""U16"",""P10"",""U24"",""U13"",""P1"",""P12"",""P22"",""P25"",""U7"",""P28""]","4","4","0","0","1","1","","null","[""balcony_v1.mp4""]","null","segmentation_video","","","","","","","","","balcony_v1.mp4","balcony","Predictable","[0.771565,2.526496,4.302646,6.282813,7.679828,9.783916,11.515475,14.144183,14.782618,16.272292,17.193468,20.415594,22.6139,23.959172,25.02583]","15","","P2","2","1","2","0.6384349999999994","false","false","false","","false","0","0","false","false","false","false",""
"","","","","","survey-multi-choice","23","2.0.0","285742","101","1","2026-06-08 20:19:07","segmentation_norming_randomized_order_maxrun_attention_v4","76.32.236.39","Mozilla/5.0 (X11; Linux x86_64) AppleWebKit/537.36 (KHTML, like Gecko) Chrome/142.0.0.0 Safari/537.36","WebKit","Chrome","142.0.0.0","Linux","","https://uencdihehs.cognition.run/?PROLIFIC_PID=69886a7e4ed41aea28fefced&STUDY_ID=6a270c2e609d6ae583c06396&STUDY_ID=6a270c2e609d6ae583c06396&SESSION_ID=6a27231e848baeb2f820669b?PROLIFIC_PID=69886a7e4ed41aea28fefced&SESSION_ID=6a27231e848baeb2f820669b?","en-US,en;q=0.9","69886a7e4ed41aea28fefced","6a270c2e609d6ae583c06396","6a27231e848baeb2f820669b?","69886a7e4ed41aea28fefced","6a270c2e609d6ae583c06396","6a27231e848baeb2f820669b?","30","[6,2,23,5,30,19,21,9,15,20,4,8,18,26,27,14,17,29,11,3,16,10,24,13,1,12,22,25,7,28]","[""U6"",""P2"",""U23"",""P5"",""P30"",""P19"",""P21"",""U9"",""U15"",""P20"",""U4"",""U8"",""U18"",""U26"",""P27"",""U14"",""P17"",""U29"",""U11"",""U3"",""P16"",""U10"",""P24"",""P13"",""U1"",""U12"",""U22"",""U25"",""P7"",""U28""]","[""P6"",""U2"",""P23"",""U5"",""U30"",""U19"",""U21"",""P9"",""P15"",""U20"",""P4"",""P8"",""P18"",""P26"",""U27"",""P14"",""U17"",""P29"",""P11"",""P3"",""U16"",""P10"",""U24"",""U13"",""P1"",""P12"",""P22"",""P25"",""U7"",""P28""]","4","4","0","0","1","1","","4706","","{""confidence_rating"":""Neutral""}","confidence_question","[0]","","","","","","","","","balcony","Predictable","","","","P2","2","1","2","","","","","","","","","","","","","Neutral"
"","","","","","video-keyboard-response","24","2.0.0","297801","101","1","2026-06-08 20:19:07","segmentation_norming_randomized_order_maxrun_attention_v4","76.32.236.39","Mozilla/5.0 (X11; Linux x86_64) AppleWebKit/537.36 (KHTML, like Gecko) Chrome/142.0.0.0 Safari/537.36","WebKit","Chrome","142.0.0.0","Linux","","https://uencdihehs.cognition.run/?PROLIFIC_PID=69886a7e4ed41aea28fefced&STUDY_ID=6a270c2e609d6ae583c06396&STUDY_ID=6a270c2e609d6ae583c06396&SESSION_ID=6a27231e848baeb2f820669b?PROLIFIC_PID=69886a7e4ed41aea28fefced&SESSION_ID=6a27231e848baeb2f820669b?","en-US,en;q=0.9","69886a7e4ed41aea28fefced","6a270c2e609d6ae583c06396","6a27231e848baeb2f820669b?","69886a7e4ed41aea28fefced","6a270c2e609d6ae583c06396","6a27231e848baeb2f820669b?","30","[6,2,23,5,30,19,21,9,15,20,4,8,18,26,27,14,17,29,11,3,16,10,24,13,1,12,22,25,7,28]","[""U6"",""P2"",""U23"",""P5"",""P30"",""P19"",""P21"",""U9"",""U15"",""P20"",""U4"",""U8"",""U18"",""U26"",""P27"",""U14"",""P17"",""U29"",""U11"",""U3"",""P16"",""U10"",""P24"",""P13"",""U1"",""U12"",""U22"",""U25"",""P7"",""U28""]","[""P6"",""U2"",""P23"",""U5"",""U30"",""U19"",""U21"",""P9"",""P15"",""U20"",""P4"",""P8"",""P18"",""P26"",""U27"",""P14"",""U17"",""P29"",""P11"",""P3"",""U16"",""P10"",""U24"",""U13"",""P1"",""P12"",""P22"",""P25"",""U7"",""P28""]","4","4","0","0","1","1","","null","[""shopping_v2.mp4""]","null","segmentation_video","","","","","","","","","shopping_v2.mp4","shopping","Unpredictable","[0.802169,1.623306,2.437245,2.839192,3.862609,5.587163,7.118865,8.421945,9.756225]","9","","U23","23","1","3","0.4019470000000003","false","false","false","","false","0","0","false","false","false","false",""
"","","","","","survey-multi-choice","27","2.0.0","303588","101","1","2026-06-08 20:19:07","segmentation_norming_randomized_order_maxrun_attention_v4","76.32.236.39","Mozilla/5.0 (X11; Linux x86_64) AppleWebKit/537.36 (KHTML, like Gecko) Chrome/142.0.0.0 Safari/537.36","WebKit","Chrome","142.0.0.0","Linux","","https://uencdihehs.cognition.run/?PROLIFIC_PID=69886a7e4ed41aea28fefced&STUDY_ID=6a270c2e609d6ae583c06396&STUDY_ID=6a270c2e609d6ae583c06396&SESSION_ID=6a27231e848baeb2f820669b?PROLIFIC_PID=69886a7e4ed41aea28fefced&SESSION_ID=6a27231e848baeb2f820669b?","en-US,en;q=0.9","69886a7e4ed41aea28fefced","6a270c2e609d6ae583c06396","6a27231e848baeb2f820669b?","69886a7e4ed41aea28fefced","6a270c2e609d6ae583c06396","6a27231e848baeb2f820669b?","30","[6,2,23,5,30,19,21,9,15,20,4,8,18,26,27,14,17,29,11,3,16,10,24,13,1,12,22,25,7,28]","[""U6"",""P2"",""U23"",""P5"",""P30"",""P19"",""P21"",""U9"",""U15"",""P20"",""U4"",""U8"",""U18"",""U26"",""P27"",""U14"",""P17"",""U29"",""U11"",""U3"",""P16"",""U10"",""P24"",""P13"",""U1"",""U12"",""U22"",""U25"",""P7"",""U28""]","[""P6"",""U2"",""P23"",""U5"",""U30"",""U19"",""U21"",""P9"",""P15"",""U20"",""P4"",""P8"",""P18"",""P26"",""U27"",""P14"",""U17"",""P29"",""P11"",""P3"",""U16"",""P10"",""U24"",""U13"",""P1"",""P12"",""P22"",""P25"",""U7"",""P28""]","4","4","0","0","1","1","","5785","","{""confidence_rating"":""Moderately confident""}","confidence_question","[0]","","","","","","","","","shopping","Unpredictable","","","","U23","23","1","3","","","","","","","","","","","","","Moderately confident"
"","","","","","video-keyboard-response","28","2.0.0","330612","101","1","2026-06-08 20:19:07","segmentation_norming_randomized_order_maxrun_attention_v4","76.32.236.39","Mozilla/5.0 (X11; Linux x86_64) AppleWebKit/537.36 (KHTML, like Gecko) Chrome/142.0.0.0 Safari/537.36","WebKit","Chrome","142.0.0.0","Linux","","https://uencdihehs.cognition.run/?PROLIFIC_PID=69886a7e4ed41aea28fefced&STUDY_ID=6a270c2e609d6ae583c06396&STUDY_ID=6a270c2e609d6ae583c06396&SESSION_ID=6a27231e848baeb2f820669b?PROLIFIC_PID=69886a7e4ed41aea28fefced&SESSION_ID=6a27231e848baeb2f820669b?","en-US,en;q=0.9","69886a7e4ed41aea28fefced","6a270c2e609d6ae583c06396","6a27231e848baeb2f820669b?","69886a7e4ed41aea28fefced","6a270c2e609d6ae583c06396","6a27231e848baeb2f820669b?","30","[6,2,23,5,30,19,21,9,15,20,4,8,18,26,27,14,17,29,11,3,16,10,24,13,1,12,22,25,7,28]","[""U6"",""P2"",""U23"",""P5"",""P30"",""P19"",""P21"",""U9"",""U15"",""P20"",""U4"",""U8"",""U18"",""U26"",""P27"",""U14"",""P17"",""U29"",""U11"",""U3"",""P16"",""U10"",""P24"",""P13"",""U1"",""U12"",""U22"",""U25"",""P7"",""U28""]","[""P6"",""U2"",""P23"",""U5"",""U30"",""U19"",""U21"",""P9"",""P15"",""U20"",""P4"",""P8"",""P18"",""P26"",""U27"",""P14"",""U17"",""P29"",""P11"",""P3"",""U16"",""P10"",""U24"",""U13"",""P1"",""P12"",""P22"",""P25"",""U7"",""P28""]","4","4","0","0","1","1","","null","[""beach_v1.mp4""]","null","segmentation_video","","","","","","","","","beach_v1.mp4","beach","Predictable","[1.34463,2.36698,4.075729,5.172241,7.71349,11.111409,12.083429,13.066232,14.644897,15.761135,17.457401,18.510275,19.958919,21.927657,24.455073,26.075478]","16","","P5","5","1","4","0.9720200000000006","false","false","false","","false","0","0","false","false","false","false",""
"","","","","","survey-multi-choice","31","2.0.0","334428","101","1","2026-06-08 20:19:07","segmentation_norming_randomized_order_maxrun_attention_v4","76.32.236.39","Mozilla/5.0 (X11; Linux x86_64) AppleWebKit/537.36 (KHTML, like Gecko) Chrome/142.0.0.0 Safari/537.36","WebKit","Chrome","142.0.0.0","Linux","","https://uencdihehs.cognition.run/?PROLIFIC_PID=69886a7e4ed41aea28fefced&STUDY_ID=6a270c2e609d6ae583c06396&STUDY_ID=6a270c2e609d6ae583c06396&SESSION_ID=6a27231e848baeb2f820669b?PROLIFIC_PID=69886a7e4ed41aea28fefced&SESSION_ID=6a27231e848baeb2f820669b?","en-US,en;q=0.9","69886a7e4ed41aea28fefced","6a270c2e609d6ae583c06396","6a27231e848baeb2f820669b?","69886a7e4ed41aea28fefced","6a270c2e609d6ae583c06396","6a27231e848baeb2f820669b?","30","[6,2,23,5,30,19,21,9,15,20,4,8,18,26,27,14,17,29,11,3,16,10,24,13,1,12,22,25,7,28]","[""U6"",""P2"",""U23"",""P5"",""P30"",""P19"",""P21"",""U9"",""U15"",""P20"",""U4"",""U8"",""U18"",""U26"",""P27"",""U14"",""P17"",""U29"",""U11"",""U3"",""P16"",""U10"",""P24"",""P13"",""U1"",""U12"",""U22"",""U25"",""P7"",""U28""]","[""P6"",""U2"",""P23"",""U5"",""U30"",""U19"",""U21"",""P9"",""P15"",""U20"",""P4"",""P8"",""P18"",""P26"",""U27"",""P14"",""U17"",""P29"",""P11"",""P3"",""U16"",""P10"",""U24"",""U13"",""P1"",""P12"",""P22"",""P25"",""U7"",""P28""]","4","4","0","0","1","1","","3815","","{""confidence_rating"":""Moderately confident""}","confidence_question","[0]","","","","","","","","","beach","Predictable","","","","P5","5","1","4","","","","","","","","","","","","","Moderately confident"
"","","","","","video-keyboard-response","32","2.0.0","371231","101","1","2026-06-08 20:19:07","segmentation_norming_randomized_order_maxrun_attention_v4","76.32.236.39","Mozilla/5.0 (X11; Linux x86_64) AppleWebKit/537.36 (KHTML, like Gecko) Chrome/142.0.0.0 Safari/537.36","WebKit","Chrome","142.0.0.0","Linux","","https://uencdihehs.cognition.run/?PROLIFIC_PID=69886a7e4ed41aea28fefced&STUDY_ID=6a270c2e609d6ae583c06396&STUDY_ID=6a270c2e609d6ae583c06396&SESSION_ID=6a27231e848baeb2f820669b?PROLIFIC_PID=69886a7e4ed41aea28fefced&SESSION_ID=6a27231e848baeb2f820669b?","en-US,en;q=0.9","69886a7e4ed41aea28fefced","6a270c2e609d6ae583c06396","6a27231e848baeb2f820669b?","69886a7e4ed41aea28fefced","6a270c2e609d6ae583c06396","6a27231e848baeb2f820669b?","30","[6,2,23,5,30,19,21,9,15,20,4,8,18,26,27,14,17,29,11,3,16,10,24,13,1,12,22,25,7,28]","[""U6"",""P2"",""U23"",""P5"",""P30"",""P19"",""P21"",""U9"",""U15"",""P20"",""U4"",""U8"",""U18"",""U26"",""P27"",""U14"",""P17"",""U29"",""U11"",""U3"",""P16"",""U10"",""P24"",""P13"",""U1"",""U12"",""U22"",""U25"",""P7"",""U28""]","[""P6"",""U2"",""P23"",""U5"",""U30"",""U19"",""U21"",""P9"",""P15"",""U20"",""P4"",""P8"",""P18"",""P26"",""U27"",""P14"",""U17"",""P29"",""P11"",""P3"",""U16"",""P10"",""U24"",""U13"",""P1"",""P12"",""P22"",""P25"",""U7"",""P28""]","4","4","0","0","1","1","","null","[""whiteboard_v1.mp4""]","null","segmentation_video","","","","","","","","","whiteboard_v1.mp4","whiteboard","Predictable","[0.747985,9.166961,12.14194,13.848375,15.52775,20.571858,22.901915,28.719041]","8","","P30","30","1","5","1.6793749999999985","false","false","false","","false","0","0","false","false","false","false",""
"","","","","","survey-multi-choice","35","2.0.0","374959","101","1","2026-06-08 20:19:07","segmentation_norming_randomized_order_maxrun_attention_v4","76.32.236.39","Mozilla/5.0 (X11; Linux x86_64) AppleWebKit/537.36 (KHTML, like Gecko) Chrome/142.0.0.0 Safari/537.36","WebKit","Chrome","142.0.0.0","Linux","","https://uencdihehs.cognition.run/?PROLIFIC_PID=69886a7e4ed41aea28fefced&STUDY_ID=6a270c2e609d6ae583c06396&STUDY_ID=6a270c2e609d6ae583c06396&SESSION_ID=6a27231e848baeb2f820669b?PROLIFIC_PID=69886a7e4ed41aea28fefced&SESSION_ID=6a27231e848baeb2f820669b?","en-US,en;q=0.9","69886a7e4ed41aea28fefced","6a270c2e609d6ae583c06396","6a27231e848baeb2f820669b?","69886a7e4ed41aea28fefced","6a270c2e609d6ae583c06396","6a27231e848baeb2f820669b?","30","[6,2,23,5,30,19,21,9,15,20,4,8,18,26,27,14,17,29,11,3,16,10,24,13,1,12,22,25,7,28]","[""U6"",""P2"",""U23"",""P5"",""P30"",""P19"",""P21"",""U9"",""U15"",""P20"",""U4"",""U8"",""U18"",""U26"",""P27"",""U14"",""P17"",""U29"",""U11"",""U3"",""P16"",""U10"",""P24"",""P13"",""U1"",""U12"",""U22"",""U25"",""P7"",""U28""]","[""P6"",""U2"",""P23"",""U5"",""U30"",""U19"",""U21"",""P9"",""P15"",""U20"",""P4"",""P8"",""P18"",""P26"",""U27"",""P14"",""U17"",""P29"",""P11"",""P3"",""U16"",""P10"",""U24"",""U13"",""P1"",""P12"",""P22"",""P25"",""U7"",""P28""]","4","4","0","0","1","1","","3726","","{""confidence_rating"":""Neutral""}","confidence_question","[0]","","","","","","","","","whiteboard","Predictable","","","","P30","30","1","5","","","","","","","","","","","","","Neutral"
"","","","","","video-keyboard-response","36","2.0.0","410399","101","1","2026-06-08 20:19:07","segmentation_norming_randomized_order_maxrun_attention_v4","76.32.236.39","Mozilla/5.0 (X11; Linux x86_64) AppleWebKit/537.36 (KHTML, like Gecko) Chrome/142.0.0.0 Safari/537.36","WebKit","Chrome","142.0.0.0","Linux","","https://uencdihehs.cognition.run/?PROLIFIC_PID=69886a7e4ed41aea28fefced&STUDY_ID=6a270c2e609d6ae583c06396&STUDY_ID=6a270c2e609d6ae583c06396&SESSION_ID=6a27231e848baeb2f820669b?PROLIFIC_PID=69886a7e4ed41aea28fefced&SESSION_ID=6a27231e848baeb2f820669b?","en-US,en;q=0.9","69886a7e4ed41aea28fefced","6a270c2e609d6ae583c06396","6a27231e848baeb2f820669b?","69886a7e4ed41aea28fefced","6a270c2e609d6ae583c06396","6a27231e848baeb2f820669b?","30","[6,2,23,5,30,19,21,9,15,20,4,8,18,26,27,14,17,29,11,3,16,10,24,13,1,12,22,25,7,28]","[""U6"",""P2"",""U23"",""P5"",""P30"",""P19"",""P21"",""U9"",""U15"",""P20"",""U4"",""U8"",""U18"",""U26"",""P27"",""U14"",""P17"",""U29"",""U11"",""U3"",""P16"",""U10"",""P24"",""P13"",""U1"",""U12"",""U22"",""U25"",""P7"",""U28""]","[""P6"",""U2"",""P23"",""U5"",""U30"",""U19"",""U21"",""P9"",""P15"",""U20"",""P4"",""P8"",""P18"",""P26"",""U27"",""P14"",""U17"",""P29"",""P11"",""P3"",""U16"",""P10"",""U24"",""U13"",""P1"",""P12"",""P22"",""P25"",""U7"",""P28""]","4","4","0","0","1","1","","null","[""party_v1.mp4""]","null","segmentation_video","","","","","","","","","party_v1.mp4","party","Predictable","[0.528072,3.145972,6.824418,7.68319,9.528302,11.187828,13.163089,17.526904,22.535331,26.053401,27.183341,28.871106,34.567324]","13","","P19","19","1","6","0.8587720000000001","false","false","false","","false","0","0","false","false","false","false",""
"","","","","","survey-multi-choice","39","2.0.0","415195","101","1","2026-06-08 20:19:07","segmentation_norming_randomized_order_maxrun_attention_v4","76.32.236.39","Mozilla/5.0 (X11; Linux x86_64) AppleWebKit/537.36 (KHTML, like Gecko) Chrome/142.0.0.0 Safari/537.36","WebKit","Chrome","142.0.0.0","Linux","","https://uencdihehs.cognition.run/?PROLIFIC_PID=69886a7e4ed41aea28fefced&STUDY_ID=6a270c2e609d6ae583c06396&STUDY_ID=6a270c2e609d6ae583c06396&SESSION_ID=6a27231e848baeb2f820669b?PROLIFIC_PID=69886a7e4ed41aea28fefced&SESSION_ID=6a27231e848baeb2f820669b?","en-US,en;q=0.9","69886a7e4ed41aea28fefced","6a270c2e609d6ae583c06396","6a27231e848baeb2f820669b?","69886a7e4ed41aea28fefced","6a270c2e609d6ae583c06396","6a27231e848baeb2f820669b?","30","[6,2,23,5,30,19,21,9,15,20,4,8,18,26,27,14,17,29,11,3,16,10,24,13,1,12,22,25,7,28]","[""U6"",""P2"",""U23"",""P5"",""P30"",""P19"",""P21"",""U9"",""U15"",""P20"",""U4"",""U8"",""U18"",""U26"",""P27"",""U14"",""P17"",""U29"",""U11"",""U3"",""P16"",""U10"",""P24"",""P13"",""U1"",""U12"",""U22"",""U25"",""P7"",""U28""]","[""P6"",""U2"",""P23"",""U5"",""U30"",""U19"",""U21"",""P9"",""P15"",""U20"",""P4"",""P8"",""P18"",""P26"",""U27"",""P14"",""U17"",""P29"",""P11"",""P3"",""U16"",""P10"",""U24"",""U13"",""P1"",""P12"",""P22"",""P25"",""U7"",""P28""]","4","4","0","0","1","1","","4794","","{""confidence_rating"":""Moderately confident""}","confidence_question","[0]","","","","","","","","","party","Predictable","","","","P19","19","1","6","","","","","","","","","","","","","Moderately confident"
"","","","","","video-keyboard-response","40","2.0.0","459509","101","1","2026-06-08 20:19:07","segmentation_norming_randomized_order_maxrun_attention_v4","76.32.236.39","Mozilla/5.0 (X11; Linux x86_64) AppleWebKit/537.36 (KHTML, like Gecko) Chrome/142.0.0.0 Safari/537.36","WebKit","Chrome","142.0.0.0","Linux","","https://uencdihehs.cognition.run/?PROLIFIC_PID=69886a7e4ed41aea28fefced&STUDY_ID=6a270c2e609d6ae583c06396&STUDY_ID=6a270c2e609d6ae583c06396&SESSION_ID=6a27231e848baeb2f820669b?PROLIFIC_PID=69886a7e4ed41aea28fefced&SESSION_ID=6a27231e848baeb2f820669b?","en-US,en;q=0.9","69886a7e4ed41aea28fefced","6a270c2e609d6ae583c06396","6a27231e848baeb2f820669b?","69886a7e4ed41aea28fefced","6a270c2e609d6ae583c06396","6a27231e848baeb2f820669b?","30","[6,2,23,5,30,19,21,9,15,20,4,8,18,26,27,14,17,29,11,3,16,10,24,13,1,12,22,25,7,28]","[""U6"",""P2"",""U23"",""P5"",""P30"",""P19"",""P21"",""U9"",""U15"",""P20"",""U4"",""U8"",""U18"",""U26"",""P27"",""U14"",""P17"",""U29"",""U11"",""U3"",""P16"",""U10"",""P24"",""P13"",""U1"",""U12"",""U22"",""U25"",""P7"",""U28""]","[""P6"",""U2"",""P23"",""U5"",""U30"",""U19"",""U21"",""P9"",""P15"",""U20"",""P4"",""P8"",""P18"",""P26"",""U27"",""P14"",""U17"",""P29"",""P11"",""P3"",""U16"",""P10"",""U24"",""U13"",""P1"",""P12"",""P22"",""P25"",""U7"",""P28""]","4","4","0","0","1","1","","null","[""printer_v1.mp4""]","null","segmentation_video","","","","","","","","","printer_v1.mp4","printer","Predictable","[0.448491,3.247384,5.061362,7.262969,8.555508,9.544501,12.039323,13.859922,15.763373,17.665387,19.590711,21.413797,23.255655,25.098422,27.3133,29.937097,32.255743,34.831434,39.154127,42.090249,43.708855]","21","","P21","21","1","7","0.9889930000000007","false","false","false","","false","0","0","false","false","false","false",""
"","","","","","survey-multi-choice","43","2.0.0","463675","101","1","2026-06-08 20:19:07","segmentation_norming_randomized_order_maxrun_attention_v4","76.32.236.39","Mozilla/5.0 (X11; Linux x86_64) AppleWebKit/537.36 (KHTML, like Gecko) Chrome/142.0.0.0 Safari/537.36","WebKit","Chrome","142.0.0.0","Linux","","https://uencdihehs.cognition.run/?PROLIFIC_PID=69886a7e4ed41aea28fefced&STUDY_ID=6a270c2e609d6ae583c06396&STUDY_ID=6a270c2e609d6ae583c06396&SESSION_ID=6a27231e848baeb2f820669b?PROLIFIC_PID=69886a7e4ed41aea28fefced&SESSION_ID=6a27231e848baeb2f820669b?","en-US,en;q=0.9","69886a7e4ed41aea28fefced","6a270c2e609d6ae583c06396","6a27231e848baeb2f820669b?","69886a7e4ed41aea28fefced","6a270c2e609d6ae583c06396","6a27231e848baeb2f820669b?","30","[6,2,23,5,30,19,21,9,15,20,4,8,18,26,27,14,17,29,11,3,16,10,24,13,1,12,22,25,7,28]","[""U6"",""P2"",""U23"",""P5"",""P30"",""P19"",""P21"",""U9"",""U15"",""P20"",""U4"",""U8"",""U18"",""U26"",""P27"",""U14"",""P17"",""U29"",""U11"",""U3"",""P16"",""U10"",""P24"",""P13"",""U1"",""U12"",""U22"",""U25"",""P7"",""U28""]","[""P6"",""U2"",""P23"",""U5"",""U30"",""U19"",""U21"",""P9"",""P15"",""U20"",""P4"",""P8"",""P18"",""P26"",""U27"",""P14"",""U17"",""P29"",""P11"",""P3"",""U16"",""P10"",""U24"",""U13"",""P1"",""P12"",""P22"",""P25"",""U7"",""P28""]","4","4","0","0","1","1","","4165","","{""confidence_rating"":""Neutral""}","confidence_question","[0]","","","","","","","","","printer","Predictable","","","","P21","21","1","7","","","","","","","","","","","","","Neutral"
"","","","","","video-keyboard-response","44","2.0.0","501641","101","1","2026-06-08 20:19:07","segmentation_norming_randomized_order_maxrun_attention_v4","76.32.236.39","Mozilla/5.0 (X11; Linux x86_64) AppleWebKit/537.36 (KHTML, like Gecko) Chrome/142.0.0.0 Safari/537.36","WebKit","Chrome","142.0.0.0","Linux","","https://uencdihehs.cognition.run/?PROLIFIC_PID=69886a7e4ed41aea28fefced&STUDY_ID=6a270c2e609d6ae583c06396&STUDY_ID=6a270c2e609d6ae583c06396&SESSION_ID=6a27231e848baeb2f820669b?PROLIFIC_PID=69886a7e4ed41aea28fefced&SESSION_ID=6a27231e848baeb2f820669b?","en-US,en;q=0.9","69886a7e4ed41aea28fefced","6a270c2e609d6ae583c06396","6a27231e848baeb2f820669b?","69886a7e4ed41aea28fefced","6a270c2e609d6ae583c06396","6a27231e848baeb2f820669b?","30","[6,2,23,5,30,19,21,9,15,20,4,8,18,26,27,14,17,29,11,3,16,10,24,13,1,12,22,25,7,28]","[""U6"",""P2"",""U23"",""P5"",""P30"",""P19"",""P21"",""U9"",""U15"",""P20"",""U4"",""U8"",""U18"",""U26"",""P27"",""U14"",""P17"",""U29"",""U11"",""U3"",""P16"",""U10"",""P24"",""P13"",""U1"",""U12"",""U22"",""U25"",""P7"",""U28""]","[""P6"",""U2"",""P23"",""U5"",""U30"",""U19"",""U21"",""P9"",""P15"",""U20"",""P4"",""P8"",""P18"",""P26"",""U27"",""P14"",""U17"",""P29"",""P11"",""P3"",""U16"",""P10"",""U24"",""U13"",""P1"",""P12"",""P22"",""P25"",""U7"",""P28""]","4","4","0","0","1","1","","null","[""cereal_v2.mp4""]","null","segmentation_video","","","","","","","","","cereal_v2.mp4","cereal","Unpredictable","[0.534795,2.659589,6.771614,10.560051,14.161068,16.94188,18.457459,21.301735,25.497452,28.195235,30.299989,32.41765,34.356152,36.991952]","14","","U9","9","1","8","1.515578999999999","false","false","false","","false","0","0","false","false","false","false",""
"","","","","","survey-multi-choice","47","2.0.0","505975","101","1","2026-06-08 20:19:07","segmentation_norming_randomized_order_maxrun_attention_v4","76.32.236.39","Mozilla/5.0 (X11; Linux x86_64) AppleWebKit/537.36 (KHTML, like Gecko) Chrome/142.0.0.0 Safari/537.36","WebKit","Chrome","142.0.0.0","Linux","","https://uencdihehs.cognition.run/?PROLIFIC_PID=69886a7e4ed41aea28fefced&STUDY_ID=6a270c2e609d6ae583c06396&STUDY_ID=6a270c2e609d6ae583c06396&SESSION_ID=6a27231e848baeb2f820669b?PROLIFIC_PID=69886a7e4ed41aea28fefced&SESSION_ID=6a27231e848baeb2f820669b?","en-US,en;q=0.9","69886a7e4ed41aea28fefced","6a270c2e609d6ae583c06396","6a27231e848baeb2f820669b?","69886a7e4ed41aea28fefced","6a270c2e609d6ae583c06396","6a27231e848baeb2f820669b?","30","[6,2,23,5,30,19,21,9,15,20,4,8,18,26,27,14,17,29,11,3,16,10,24,13,1,12,22,25,7,28]","[""U6"",""P2"",""U23"",""P5"",""P30"",""P19"",""P21"",""U9"",""U15"",""P20"",""U4"",""U8"",""U18"",""U26"",""P27"",""U14"",""P17"",""U29"",""U11"",""U3"",""P16"",""U10"",""P24"",""P13"",""U1"",""U12"",""U22"",""U25"",""P7"",""U28""]","[""P6"",""U2"",""P23"",""U5"",""U30"",""U19"",""U21"",""P9"",""P15"",""U20"",""P4"",""P8"",""P18"",""P26"",""U27"",""P14"",""U17"",""P29"",""P11"",""P3"",""U16"",""P10"",""U24"",""U13"",""P1"",""P12"",""P22"",""P25"",""U7"",""P28""]","4","4","0","0","1","1","","4332","","{""confidence_rating"":""Moderately confident""}","confidence_question","[0]","","","","","","","","","cereal","Unpredictable","","","","U9","9","1","8","","","","","","","","","","","","","Moderately confident"
"","","","","","video-keyboard-response","48","2.0.0","537076","101","1","2026-06-08 20:19:07","segmentation_norming_randomized_order_maxrun_attention_v4","76.32.236.39","Mozilla/5.0 (X11; Linux x86_64) AppleWebKit/537.36 (KHTML, like Gecko) Chrome/142.0.0.0 Safari/537.36","WebKit","Chrome","142.0.0.0","Linux","","https://uencdihehs.cognition.run/?PROLIFIC_PID=69886a7e4ed41aea28fefced&STUDY_ID=6a270c2e609d6ae583c06396&STUDY_ID=6a270c2e609d6ae583c06396&SESSION_ID=6a27231e848baeb2f820669b?PROLIFIC_PID=69886a7e4ed41aea28fefced&SESSION_ID=6a27231e848baeb2f820669b?","en-US,en;q=0.9","69886a7e4ed41aea28fefced","6a270c2e609d6ae583c06396","6a27231e848baeb2f820669b?","69886a7e4ed41aea28fefced","6a270c2e609d6ae583c06396","6a27231e848baeb2f820669b?","30","[6,2,23,5,30,19,21,9,15,20,4,8,18,26,27,14,17,29,11,3,16,10,24,13,1,12,22,25,7,28]","[""U6"",""P2"",""U23"",""P5"",""P30"",""P19"",""P21"",""U9"",""U15"",""P20"",""U4"",""U8"",""U18"",""U26"",""P27"",""U14"",""P17"",""U29"",""U11"",""U3"",""P16"",""U10"",""P24"",""P13"",""U1"",""U12"",""U22"",""U25"",""P7"",""U28""]","[""P6"",""U2"",""P23"",""U5"",""U30"",""U19"",""U21"",""P9"",""P15"",""U20"",""P4"",""P8"",""P18"",""P26"",""U27"",""P14"",""U17"",""P29"",""P11"",""P3"",""U16"",""P10"",""U24"",""U13"",""P1"",""P12"",""P22"",""P25"",""U7"",""P28""]","4","4","0","0","1","1","","null","[""laundry_v2.mp4""]","null","segmentation_video","","","","","","","","","laundry_v2.mp4","laundry","Unpredictable","[1.027062,2.245084,4.417099,7.045125,8.546494,10.846401,12.835446,15.396274,19.636435,24.146178,26.807466,28.512789]","12","","U15","15","1","9","1.218022","false","false","false","","false","0","0","false","false","false","false",""
"","","","","","survey-multi-choice","51","2.0.0","540118","101","1","2026-06-08 20:19:07","segmentation_norming_randomized_order_maxrun_attention_v4","76.32.236.39","Mozilla/5.0 (X11; Linux x86_64) AppleWebKit/537.36 (KHTML, like Gecko) Chrome/142.0.0.0 Safari/537.36","WebKit","Chrome","142.0.0.0","Linux","","https://uencdihehs.cognition.run/?PROLIFIC_PID=69886a7e4ed41aea28fefced&STUDY_ID=6a270c2e609d6ae583c06396&STUDY_ID=6a270c2e609d6ae583c06396&SESSION_ID=6a27231e848baeb2f820669b?PROLIFIC_PID=69886a7e4ed41aea28fefced&SESSION_ID=6a27231e848baeb2f820669b?","en-US,en;q=0.9","69886a7e4ed41aea28fefced","6a270c2e609d6ae583c06396","6a27231e848baeb2f820669b?","69886a7e4ed41aea28fefced","6a270c2e609d6ae583c06396","6a27231e848baeb2f820669b?","30","[6,2,23,5,30,19,21,9,15,20,4,8,18,26,27,14,17,29,11,3,16,10,24,13,1,12,22,25,7,28]","[""U6"",""P2"",""U23"",""P5"",""P30"",""P19"",""P21"",""U9"",""U15"",""P20"",""U4"",""U8"",""U18"",""U26"",""P27"",""U14"",""P17"",""U29"",""U11"",""U3"",""P16"",""U10"",""P24"",""P13"",""U1"",""U12"",""U22"",""U25"",""P7"",""U28""]","[""P6"",""U2"",""P23"",""U5"",""U30"",""U19"",""U21"",""P9"",""P15"",""U20"",""P4"",""P8"",""P18"",""P26"",""U27"",""P14"",""U17"",""P29"",""P11"",""P3"",""U16"",""P10"",""U24"",""U13"",""P1"",""P12"",""P22"",""P25"",""U7"",""P28""]","4","4","0","0","1","1","","3040","","{""confidence_rating"":""Moderately confident""}","confidence_question","[0]","","","","","","","","","laundry","Unpredictable","","","","U15","15","1","9","","","","","","","","","","","","","Moderately confident"
"","","","","","video-keyboard-response","52","2.0.0","563892","101","1","2026-06-08 20:19:07","segmentation_norming_randomized_order_maxrun_attention_v4","76.32.236.39","Mozilla/5.0 (X11; Linux x86_64) AppleWebKit/537.36 (KHTML, like Gecko) Chrome/142.0.0.0 Safari/537.36","WebKit","Chrome","142.0.0.0","Linux","","https://uencdihehs.cognition.run/?PROLIFIC_PID=69886a7e4ed41aea28fefced&STUDY_ID=6a270c2e609d6ae583c06396&STUDY_ID=6a270c2e609d6ae583c06396&SESSION_ID=6a27231e848baeb2f820669b?PROLIFIC_PID=69886a7e4ed41aea28fefced&SESSION_ID=6a27231e848baeb2f820669b?","en-US,en;q=0.9","69886a7e4ed41aea28fefced","6a270c2e609d6ae583c06396","6a27231e848baeb2f820669b?","69886a7e4ed41aea28fefced","6a270c2e609d6ae583c06396","6a27231e848baeb2f820669b?","30","[6,2,23,5,30,19,21,9,15,20,4,8,18,26,27,14,17,29,11,3,16,10,24,13,1,12,22,25,7,28]","[""U6"",""P2"",""U23"",""P5"",""P30"",""P19"",""P21"",""U9"",""U15"",""P20"",""U4"",""U8"",""U18"",""U26"",""P27"",""U14"",""P17"",""U29"",""U11"",""U3"",""P16"",""U10"",""P24"",""P13"",""U1"",""U12"",""U22"",""U25"",""P7"",""U28""]","[""P6"",""U2"",""P23"",""U5"",""U30"",""U19"",""U21"",""P9"",""P15"",""U20"",""P4"",""P8"",""P18"",""P26"",""U27"",""P14"",""U17"",""P29"",""P11"",""P3"",""U16"",""P10"",""U24"",""U13"",""P1"",""P12"",""P22"",""P25"",""U7"",""P28""]","4","4","0","0","1","1","","null","[""poster_v1.mp4""]","null","segmentation_video","","","","","","","","","poster_v1.mp4","poster","Predictable","[0.920568,2.959629,4.980656,7.93975,9.780808,12.499567,14.270601,18.172074,19.950646,22.052684,23.053956]","11","","P20","20","1","10","1.0012720000000002","false","false","false","","false","0","0","false","false","false","false",""
"","","","","","survey-multi-choice","55","2.0.0","567515","101","1","2026-06-08 20:19:07","segmentation_norming_randomized_order_maxrun_attention_v4","76.32.236.39","Mozilla/5.0 (X11; Linux x86_64) AppleWebKit/537.36 (KHTML, like Gecko) Chrome/142.0.0.0 Safari/537.36","WebKit","Chrome","142.0.0.0","Linux","","https://uencdihehs.cognition.run/?PROLIFIC_PID=69886a7e4ed41aea28fefced&STUDY_ID=6a270c2e609d6ae583c06396&STUDY_ID=6a270c2e609d6ae583c06396&SESSION_ID=6a27231e848baeb2f820669b?PROLIFIC_PID=69886a7e4ed41aea28fefced&SESSION_ID=6a27231e848baeb2f820669b?","en-US,en;q=0.9","69886a7e4ed41aea28fefced","6a270c2e609d6ae583c06396","6a27231e848baeb2f820669b?","69886a7e4ed41aea28fefced","6a270c2e609d6ae583c06396","6a27231e848baeb2f820669b?","30","[6,2,23,5,30,19,21,9,15,20,4,8,18,26,27,14,17,29,11,3,16,10,24,13,1,12,22,25,7,28]","[""U6"",""P2"",""U23"",""P5"",""P30"",""P19"",""P21"",""U9"",""U15"",""P20"",""U4"",""U8"",""U18"",""U26"",""P27"",""U14"",""P17"",""U29"",""U11"",""U3"",""P16"",""U10"",""P24"",""P13"",""U1"",""U12"",""U22"",""U25"",""P7"",""U28""]","[""P6"",""U2"",""P23"",""U5"",""U30"",""U19"",""U21"",""P9"",""P15"",""U20"",""P4"",""P8"",""P18"",""P26"",""U27"",""P14"",""U17"",""P29"",""P11"",""P3"",""U16"",""P10"",""U24"",""U13"",""P1"",""P12"",""P22"",""P25"",""U7"",""P28""]","4","4","0","0","1","1","","3621","","{""confidence_rating"":""Moderately confident""}","confidence_question","[0]","","","","","","","","","poster","Predictable","","","","P20","20","1","10","","","","","","","","","","","","","Moderately confident"
"","","","","","video-keyboard-response","56","2.0.0","602868","101","1","2026-06-08 20:19:07","segmentation_norming_randomized_order_maxrun_attention_v4","76.32.236.39","Mozilla/5.0 (X11; Linux x86_64) AppleWebKit/537.36 (KHTML, like Gecko) Chrome/142.0.0.0 Safari/537.36","WebKit","Chrome","142.0.0.0","Linux","","https://uencdihehs.cognition.run/?PROLIFIC_PID=69886a7e4ed41aea28fefced&STUDY_ID=6a270c2e609d6ae583c06396&STUDY_ID=6a270c2e609d6ae583c06396&SESSION_ID=6a27231e848baeb2f820669b?PROLIFIC_PID=69886a7e4ed41aea28fefced&SESSION_ID=6a27231e848baeb2f820669b?","en-US,en;q=0.9","69886a7e4ed41aea28fefced","6a270c2e609d6ae583c06396","6a27231e848baeb2f820669b?","69886a7e4ed41aea28fefced","6a270c2e609d6ae583c06396","6a27231e848baeb2f820669b?","30","[6,2,23,5,30,19,21,9,15,20,4,8,18,26,27,14,17,29,11,3,16,10,24,13,1,12,22,25,7,28]","[""U6"",""P2"",""U23"",""P5"",""P30"",""P19"",""P21"",""U9"",""U15"",""P20"",""U4"",""U8"",""U18"",""U26"",""P27"",""U14"",""P17"",""U29"",""U11"",""U3"",""P16"",""U10"",""P24"",""P13"",""U1"",""U12"",""U22"",""U25"",""P7"",""U28""]","[""P6"",""U2"",""P23"",""U5"",""U30"",""U19"",""U21"",""P9"",""P15"",""U20"",""P4"",""P8"",""P18"",""P26"",""U27"",""P14"",""U17"",""P29"",""P11"",""P3"",""U16"",""P10"",""U24"",""U13"",""P1"",""P12"",""P22"",""P25"",""U7"",""P28""]","4","4","0","0","1","1","","null","[""bathroom_v2.mp4""]","null","segmentation_video","","","","","","","","","bathroom_v2.mp4","bathroom","Unpredictable","[2.389578,3.702023,4.993633,6.767008,8.089653,9.263962,10.42064,12.066272,13.156346,16.186147,17.310923,19.224908,21.166573,23.34163,24.971075,26.795201,28.026587,30.111704,32.970394,35.051967]","20","","U4","4","1","11","1.0900739999999995","false","false","false","","false","0","0","false","false","false","false",""
"","","","","","survey-multi-choice","59","2.0.0","607838","101","1","2026-06-08 20:19:07","segmentation_norming_randomized_order_maxrun_attention_v4","76.32.236.39","Mozilla/5.0 (X11; Linux x86_64) AppleWebKit/537.36 (KHTML, like Gecko) Chrome/142.0.0.0 Safari/537.36","WebKit","Chrome","142.0.0.0","Linux","","https://uencdihehs.cognition.run/?PROLIFIC_PID=69886a7e4ed41aea28fefced&STUDY_ID=6a270c2e609d6ae583c06396&STUDY_ID=6a270c2e609d6ae583c06396&SESSION_ID=6a27231e848baeb2f820669b?PROLIFIC_PID=69886a7e4ed41aea28fefced&SESSION_ID=6a27231e848baeb2f820669b?","en-US,en;q=0.9","69886a7e4ed41aea28fefced","6a270c2e609d6ae583c06396","6a27231e848baeb2f820669b?","69886a7e4ed41aea28fefced","6a270c2e609d6ae583c06396","6a27231e848baeb2f820669b?","30","[6,2,23,5,30,19,21,9,15,20,4,8,18,26,27,14,17,29,11,3,16,10,24,13,1,12,22,25,7,28]","[""U6"",""P2"",""U23"",""P5"",""P30"",""P19"",""P21"",""U9"",""U15"",""P20"",""U4"",""U8"",""U18"",""U26"",""P27"",""U14"",""P17"",""U29"",""U11"",""U3"",""P16"",""U10"",""P24"",""P13"",""U1"",""U12"",""U22"",""U25"",""P7"",""U28""]","[""P6"",""U2"",""P23"",""U5"",""U30"",""U19"",""U21"",""P9"",""P15"",""U20"",""P4"",""P8"",""P18"",""P26"",""U27"",""P14"",""U17"",""P29"",""P11"",""P3"",""U16"",""P10"",""U24"",""U13"",""P1"",""P12"",""P22"",""P25"",""U7"",""P28""]","4","4","0","0","1","1","","4969","","{""confidence_rating"":""Neutral""}","confidence_question","[0]","","","","","","","","","bathroom","Unpredictable","","","","U4","4","1","11","","","","","","","","","","","","","Neutral"
"","","","","","video-keyboard-response","60","2.0.0","647519","101","1","2026-06-08 20:19:07","segmentation_norming_randomized_order_maxrun_attention_v4","76.32.236.39","Mozilla/5.0 (X11; Linux x86_64) AppleWebKit/537.36 (KHTML, like Gecko) Chrome/142.0.0.0 Safari/537.36","WebKit","Chrome","142.0.0.0","Linux","","https://uencdihehs.cognition.run/?PROLIFIC_PID=69886a7e4ed41aea28fefced&STUDY_ID=6a270c2e609d6ae583c06396&STUDY_ID=6a270c2e609d6ae583c06396&SESSION_ID=6a27231e848baeb2f820669b?PROLIFIC_PID=69886a7e4ed41aea28fefced&SESSION_ID=6a27231e848baeb2f820669b?","en-US,en;q=0.9","69886a7e4ed41aea28fefced","6a270c2e609d6ae583c06396","6a27231e848baeb2f820669b?","69886a7e4ed41aea28fefced","6a270c2e609d6ae583c06396","6a27231e848baeb2f820669b?","30","[6,2,23,5,30,19,21,9,15,20,4,8,18,26,27,14,17,29,11,3,16,10,24,13,1,12,22,25,7,28]","[""U6"",""P2"",""U23"",""P5"",""P30"",""P19"",""P21"",""U9"",""U15"",""P20"",""U4"",""U8"",""U18"",""U26"",""P27"",""U14"",""P17"",""U29"",""U11"",""U3"",""P16"",""U10"",""P24"",""P13"",""U1"",""U12"",""U22"",""U25"",""P7"",""U28""]","[""P6"",""U2"",""P23"",""U5"",""U30"",""U19"",""U21"",""P9"",""P15"",""U20"",""P4"",""P8"",""P18"",""P26"",""U27"",""P14"",""U17"",""P29"",""P11"",""P3"",""U16"",""P10"",""U24"",""U13"",""P1"",""P12"",""P22"",""P25"",""U7"",""P28""]","4","4","0","0","1","1","","null","[""car_v2.mp4""]","null","segmentation_video","","","","","","","","","car_v2.mp4","car","Unpredictable","[3.30954,4.700712,6.090543,7.706435,9.520642,11.190232,12.356731,14.432622,15.740646,16.882926,18.061234,19.827175,23.752966,24.54367,26.056522,27.932578,30.05562,32.805689,34.517394,36.00793,37.477741,39.34286]","22","","U8","8","1","12","0.7907039999999981","false","false","false","","false","0","0","false","false","false","false",""
"","","","","","survey-multi-choice","63","2.0.0","651818","101","1","2026-06-08 20:19:07","segmentation_norming_randomized_order_maxrun_attention_v4","76.32.236.39","Mozilla/5.0 (X11; Linux x86_64) AppleWebKit/537.36 (KHTML, like Gecko) Chrome/142.0.0.0 Safari/537.36","WebKit","Chrome","142.0.0.0","Linux","","https://uencdihehs.cognition.run/?PROLIFIC_PID=69886a7e4ed41aea28fefced&STUDY_ID=6a270c2e609d6ae583c06396&STUDY_ID=6a270c2e609d6ae583c06396&SESSION_ID=6a27231e848baeb2f820669b?PROLIFIC_PID=69886a7e4ed41aea28fefced&SESSION_ID=6a27231e848baeb2f820669b?","en-US,en;q=0.9","69886a7e4ed41aea28fefced","6a270c2e609d6ae583c06396","6a27231e848baeb2f820669b?","69886a7e4ed41aea28fefced","6a270c2e609d6ae583c06396","6a27231e848baeb2f820669b?","30","[6,2,23,5,30,19,21,9,15,20,4,8,18,26,27,14,17,29,11,3,16,10,24,13,1,12,22,25,7,28]","[""U6"",""P2"",""U23"",""P5"",""P30"",""P19"",""P21"",""U9"",""U15"",""P20"",""U4"",""U8"",""U18"",""U26"",""P27"",""U14"",""P17"",""U29"",""U11"",""U3"",""P16"",""U10"",""P24"",""P13"",""U1"",""U12"",""U22"",""U25"",""P7"",""U28""]","[""P6"",""U2"",""P23"",""U5"",""U30"",""U19"",""U21"",""P9"",""P15"",""U20"",""P4"",""P8"",""P18"",""P26"",""U27"",""P14"",""U17"",""P29"",""P11"",""P3"",""U16"",""P10"",""U24"",""U13"",""P1"",""P12"",""P22"",""P25"",""U7"",""P28""]","4","4","0","0","1","1","","4298","","{""confidence_rating"":""Moderately confident""}","confidence_question","[0]","","","","","","","","","car","Unpredictable","","","","U8","8","1","12","","","","","","","","","","","","","Moderately confident"
"","","","","","video-keyboard-response","64","2.0.0","676617","101","1","2026-06-08 20:19:07","segmentation_norming_randomized_order_maxrun_attention_v4","76.32.236.39","Mozilla/5.0 (X11; Linux x86_64) AppleWebKit/537.36 (KHTML, like Gecko) Chrome/142.0.0.0 Safari/537.36","WebKit","Chrome","142.0.0.0","Linux","","https://uencdihehs.cognition.run/?PROLIFIC_PID=69886a7e4ed41aea28fefced&STUDY_ID=6a270c2e609d6ae583c06396&STUDY_ID=6a270c2e609d6ae583c06396&SESSION_ID=6a27231e848baeb2f820669b?PROLIFIC_PID=69886a7e4ed41aea28fefced&SESSION_ID=6a27231e848baeb2f820669b?","en-US,en;q=0.9","69886a7e4ed41aea28fefced","6a270c2e609d6ae583c06396","6a27231e848baeb2f820669b?","69886a7e4ed41aea28fefced","6a270c2e609d6ae583c06396","6a27231e848baeb2f820669b?","30","[6,2,23,5,30,19,21,9,15,20,4,8,18,26,27,14,17,29,11,3,16,10,24,13,1,12,22,25,7,28]","[""U6"",""P2"",""U23"",""P5"",""P30"",""P19"",""P21"",""U9"",""U15"",""P20"",""U4"",""U8"",""U18"",""U26"",""P27"",""U14"",""P17"",""U29"",""U11"",""U3"",""P16"",""U10"",""P24"",""P13"",""U1"",""U12"",""U22"",""U25"",""P7"",""U28""]","[""P6"",""U2"",""P23"",""U5"",""U30"",""U19"",""U21"",""P9"",""P15"",""U20"",""P4"",""P8"",""P18"",""P26"",""U27"",""P14"",""U17"",""P29"",""P11"",""P3"",""U16"",""P10"",""U24"",""U13"",""P1"",""P12"",""P22"",""P25"",""U7"",""P28""]","4","4","0","0","1","1","","null","[""painting_v2.mp4""]","null","segmentation_video","","","","","","","","","painting_v2.mp4","painting","Unpredictable","[2.533028,4.947468,7.575663,10.429549,12.539615,14.593102,16.725425,18.917936,20.982502,22.861577,24.428327]","11","","U18","18","1","13","1.566749999999999","false","false","false","","false","0","0","false","false","false","false",""
"","","","","","survey-multi-choice","67","2.0.0","679572","101","1","2026-06-08 20:19:07","segmentation_norming_randomized_order_maxrun_attention_v4","76.32.236.39","Mozilla/5.0 (X11; Linux x86_64) AppleWebKit/537.36 (KHTML, like Gecko) Chrome/142.0.0.0 Safari/537.36","WebKit","Chrome","142.0.0.0","Linux","","https://uencdihehs.cognition.run/?PROLIFIC_PID=69886a7e4ed41aea28fefced&STUDY_ID=6a270c2e609d6ae583c06396&STUDY_ID=6a270c2e609d6ae583c06396&SESSION_ID=6a27231e848baeb2f820669b?PROLIFIC_PID=69886a7e4ed41aea28fefced&SESSION_ID=6a27231e848baeb2f820669b?","en-US,en;q=0.9","69886a7e4ed41aea28fefced","6a270c2e609d6ae583c06396","6a27231e848baeb2f820669b?","69886a7e4ed41aea28fefced","6a270c2e609d6ae583c06396","6a27231e848baeb2f820669b?","30","[6,2,23,5,30,19,21,9,15,20,4,8,18,26,27,14,17,29,11,3,16,10,24,13,1,12,22,25,7,28]","[""U6"",""P2"",""U23"",""P5"",""P30"",""P19"",""P21"",""U9"",""U15"",""P20"",""U4"",""U8"",""U18"",""U26"",""P27"",""U14"",""P17"",""U29"",""U11"",""U3"",""P16"",""U10"",""P24"",""P13"",""U1"",""U12"",""U22"",""U25"",""P7"",""U28""]","[""P6"",""U2"",""P23"",""U5"",""U30"",""U19"",""U21"",""P9"",""P15"",""U20"",""P4"",""P8"",""P18"",""P26"",""U27"",""P14"",""U17"",""P29"",""P11"",""P3"",""U16"",""P10"",""U24"",""U13"",""P1"",""P12"",""P22"",""P25"",""U7"",""P28""]","4","4","0","0","1","1","","2953","","{""confidence_rating"":""Neutral""}","confidence_question","[0]","","","","","","","","","painting","Unpredictable","","","","U18","18","1","13","","","","","","","","","","","","","Neutral"
"","","","","","video-keyboard-response","68","2.0.0","719946","101","1","2026-06-08 20:19:07","segmentation_norming_randomized_order_maxrun_attention_v4","76.32.236.39","Mozilla/5.0 (X11; Linux x86_64) AppleWebKit/537.36 (KHTML, like Gecko) Chrome/142.0.0.0 Safari/537.36","WebKit","Chrome","142.0.0.0","Linux","","https://uencdihehs.cognition.run/?PROLIFIC_PID=69886a7e4ed41aea28fefced&STUDY_ID=6a270c2e609d6ae583c06396&STUDY_ID=6a270c2e609d6ae583c06396&SESSION_ID=6a27231e848baeb2f820669b?PROLIFIC_PID=69886a7e4ed41aea28fefced&SESSION_ID=6a27231e848baeb2f820669b?","en-US,en;q=0.9","69886a7e4ed41aea28fefced","6a270c2e609d6ae583c06396","6a27231e848baeb2f820669b?","69886a7e4ed41aea28fefced","6a270c2e609d6ae583c06396","6a27231e848baeb2f820669b?","30","[6,2,23,5,30,19,21,9,15,20,4,8,18,26,27,14,17,29,11,3,16,10,24,13,1,12,22,25,7,28]","[""U6"",""P2"",""U23"",""P5"",""P30"",""P19"",""P21"",""U9"",""U15"",""P20"",""U4"",""U8"",""U18"",""U26"",""P27"",""U14"",""P17"",""U29"",""U11"",""U3"",""P16"",""U10"",""P24"",""P13"",""U1"",""U12"",""U22"",""U25"",""P7"",""U28""]","[""P6"",""U2"",""P23"",""U5"",""U30"",""U19"",""U21"",""P9"",""P15"",""U20"",""P4"",""P8"",""P18"",""P26"",""U27"",""P14"",""U17"",""P29"",""P11"",""P3"",""U16"",""P10"",""U24"",""U13"",""P1"",""P12"",""P22"",""P25"",""U7"",""P28""]","4","4","0","0","1","1","","null","[""sunbathing_v2.mp4""]","null","segmentation_video","","","","","","","","","sunbathing_v2.mp4","sunbathing","Unpredictable","[3.43717,5.939029,8.679302,10.512773,12.97947,16.218512,19.549585,21.814441,24.236762,29.95657,32.588425,35.785867,39.27252]","13","","U26","26","1","14","1.8334709999999994","false","false","false","","false","0","0","false","false","false","false",""
"","","","","","survey-multi-choice","71","2.0.0","725288","101","1","2026-06-08 20:19:07","segmentation_norming_randomized_order_maxrun_attention_v4","76.32.236.39","Mozilla/5.0 (X11; Linux x86_64) AppleWebKit/537.36 (KHTML, like Gecko) Chrome/142.0.0.0 Safari/537.36","WebKit","Chrome","142.0.0.0","Linux","","https://uencdihehs.cognition.run/?PROLIFIC_PID=69886a7e4ed41aea28fefced&STUDY_ID=6a270c2e609d6ae583c06396&STUDY_ID=6a270c2e609d6ae583c06396&SESSION_ID=6a27231e848baeb2f820669b?PROLIFIC_PID=69886a7e4ed41aea28fefced&SESSION_ID=6a27231e848baeb2f820669b?","en-US,en;q=0.9","69886a7e4ed41aea28fefced","6a270c2e609d6ae583c06396","6a27231e848baeb2f820669b?","69886a7e4ed41aea28fefced","6a270c2e609d6ae583c06396","6a27231e848baeb2f820669b?","30","[6,2,23,5,30,19,21,9,15,20,4,8,18,26,27,14,17,29,11,3,16,10,24,13,1,12,22,25,7,28]","[""U6"",""P2"",""U23"",""P5"",""P30"",""P19"",""P21"",""U9"",""U15"",""P20"",""U4"",""U8"",""U18"",""U26"",""P27"",""U14"",""P17"",""U29"",""U11"",""U3"",""P16"",""U10"",""P24"",""P13"",""U1"",""U12"",""U22"",""U25"",""P7"",""U28""]","[""P6"",""U2"",""P23"",""U5"",""U30"",""U19"",""U21"",""P9"",""P15"",""U20"",""P4"",""P8"",""P18"",""P26"",""U27"",""P14"",""U17"",""P29"",""P11"",""P3"",""U16"",""P10"",""U24"",""U13"",""P1"",""P12"",""P22"",""P25"",""U7"",""P28""]","4","4","0","0","1","1","","5340","","{""confidence_rating"":""Moderately confident""}","confidence_question","[0]","","","","","","","","","sunbathing","Unpredictable","","","","U26","26","1","14","","","","","","","","","","","","","Moderately confident"
"","","","","","video-keyboard-response","72","2.0.0","756425","101","1","2026-06-08 20:19:07","segmentation_norming_randomized_order_maxrun_attention_v4","76.32.236.39","Mozilla/5.0 (X11; Linux x86_64) AppleWebKit/537.36 (KHTML, like Gecko) Chrome/142.0.0.0 Safari/537.36","WebKit","Chrome","142.0.0.0","Linux","","https://uencdihehs.cognition.run/?PROLIFIC_PID=69886a7e4ed41aea28fefced&STUDY_ID=6a270c2e609d6ae583c06396&STUDY_ID=6a270c2e609d6ae583c06396&SESSION_ID=6a27231e848baeb2f820669b?PROLIFIC_PID=69886a7e4ed41aea28fefced&SESSION_ID=6a27231e848baeb2f820669b?","en-US,en;q=0.9","69886a7e4ed41aea28fefced","6a270c2e609d6ae583c06396","6a27231e848baeb2f820669b?","69886a7e4ed41aea28fefced","6a270c2e609d6ae583c06396","6a27231e848baeb2f820669b?","30","[6,2,23,5,30,19,21,9,15,20,4,8,18,26,27,14,17,29,11,3,16,10,24,13,1,12,22,25,7,28]","[""U6"",""P2"",""U23"",""P5"",""P30"",""P19"",""P21"",""U9"",""U15"",""P20"",""U4"",""U8"",""U18"",""U26"",""P27"",""U14"",""P17"",""U29"",""U11"",""U3"",""P16"",""U10"",""P24"",""P13"",""U1"",""U12"",""U22"",""U25"",""P7"",""U28""]","[""P6"",""U2"",""P23"",""U5"",""U30"",""U19"",""U21"",""P9"",""P15"",""U20"",""P4"",""P8"",""P18"",""P26"",""U27"",""P14"",""U17"",""P29"",""P11"",""P3"",""U16"",""P10"",""U24"",""U13"",""P1"",""P12"",""P22"",""P25"",""U7"",""P28""]","4","4","0","0","1","1","","null","[""tea_v1.mp4""]","null","segmentation_video","","","","","","","","","tea_v1.mp4","tea","Predictable","[1.326188,3.530428,4.729535,6.086001,8.956419,11.512243,15.102599,18.170271,20.81514,23.713007,26.16224,27.169318,28.162812,29.653928]","14","","P27","27","1","15","0.9934939999999983","false","false","false","","false","0","0","false","false","false","false",""
"","","","","","survey-multi-choice","75","2.0.0","760872","101","1","2026-06-08 20:19:07","segmentation_norming_randomized_order_maxrun_attention_v4","76.32.236.39","Mozilla/5.0 (X11; Linux x86_64) AppleWebKit/537.36 (KHTML, like Gecko) Chrome/142.0.0.0 Safari/537.36","WebKit","Chrome","142.0.0.0","Linux","","https://uencdihehs.cognition.run/?PROLIFIC_PID=69886a7e4ed41aea28fefced&STUDY_ID=6a270c2e609d6ae583c06396&STUDY_ID=6a270c2e609d6ae583c06396&SESSION_ID=6a27231e848baeb2f820669b?PROLIFIC_PID=69886a7e4ed41aea28fefced&SESSION_ID=6a27231e848baeb2f820669b?","en-US,en;q=0.9","69886a7e4ed41aea28fefced","6a270c2e609d6ae583c06396","6a27231e848baeb2f820669b?","69886a7e4ed41aea28fefced","6a270c2e609d6ae583c06396","6a27231e848baeb2f820669b?","30","[6,2,23,5,30,19,21,9,15,20,4,8,18,26,27,14,17,29,11,3,16,10,24,13,1,12,22,25,7,28]","[""U6"",""P2"",""U23"",""P5"",""P30"",""P19"",""P21"",""U9"",""U15"",""P20"",""U4"",""U8"",""U18"",""U26"",""P27"",""U14"",""P17"",""U29"",""U11"",""U3"",""P16"",""U10"",""P24"",""P13"",""U1"",""U12"",""U22"",""U25"",""P7"",""U28""]","[""P6"",""U2"",""P23"",""U5"",""U30"",""U19"",""U21"",""P9"",""P15"",""U20"",""P4"",""P8"",""P18"",""P26"",""U27"",""P14"",""U17"",""P29"",""P11"",""P3"",""U16"",""P10"",""U24"",""U13"",""P1"",""P12"",""P22"",""P25"",""U7"",""P28""]","4","4","0","0","1","1","","4445","","{""confidence_rating"":""Moderately confident""}","confidence_question","[0]","","","","","","","","","tea","Predictable","","","","P27","27","1","15","","","","","","","","","","","","","Moderately confident"
"","","","","","video-keyboard-response","76","2.0.0","790644","101","1","2026-06-08 20:19:07","segmentation_norming_randomized_order_maxrun_attention_v4","76.32.236.39","Mozilla/5.0 (X11; Linux x86_64) AppleWebKit/537.36 (KHTML, like Gecko) Chrome/142.0.0.0 Safari/537.36","WebKit","Chrome","142.0.0.0","Linux","","https://uencdihehs.cognition.run/?PROLIFIC_PID=69886a7e4ed41aea28fefced&STUDY_ID=6a270c2e609d6ae583c06396&STUDY_ID=6a270c2e609d6ae583c06396&SESSION_ID=6a27231e848baeb2f820669b?PROLIFIC_PID=69886a7e4ed41aea28fefced&SESSION_ID=6a27231e848baeb2f820669b?","en-US,en;q=0.9","69886a7e4ed41aea28fefced","6a270c2e609d6ae583c06396","6a27231e848baeb2f820669b?","69886a7e4ed41aea28fefced","6a270c2e609d6ae583c06396","6a27231e848baeb2f820669b?","30","[6,2,23,5,30,19,21,9,15,20,4,8,18,26,27,14,17,29,11,3,16,10,24,13,1,12,22,25,7,28]","[""U6"",""P2"",""U23"",""P5"",""P30"",""P19"",""P21"",""U9"",""U15"",""P20"",""U4"",""U8"",""U18"",""U26"",""P27"",""U14"",""P17"",""U29"",""U11"",""U3"",""P16"",""U10"",""P24"",""P13"",""U1"",""U12"",""U22"",""U25"",""P7"",""U28""]","[""P6"",""U2"",""P23"",""U5"",""U30"",""U19"",""U21"",""P9"",""P15"",""U20"",""P4"",""P8"",""P18"",""P26"",""U27"",""P14"",""U17"",""P29"",""P11"",""P3"",""U16"",""P10"",""U24"",""U13"",""P1"",""P12"",""P22"",""P25"",""U7"",""P28""]","4","4","0","0","1","1","","null","[""lamp_v2.mp4""]","null","segmentation_video","","","","","","","","","lamp_v2.mp4","lamp","Unpredictable","[2.302637,5.843687,6.883411,8.740006,10.19193,12.381122,14.939664,19.192131,22.377877,25.817752,28.66557]","11","","U14","14","1","16","1.0397239999999996","false","false","false","","false","0","0","false","false","false","false",""
"","","","","","survey-multi-choice","79","2.0.0","807595","101","1","2026-06-08 20:19:07","segmentation_norming_randomized_order_maxrun_attention_v4","76.32.236.39","Mozilla/5.0 (X11; Linux x86_64) AppleWebKit/537.36 (KHTML, like Gecko) Chrome/142.0.0.0 Safari/537.36","WebKit","Chrome","142.0.0.0","Linux","","https://uencdihehs.cognition.run/?PROLIFIC_PID=69886a7e4ed41aea28fefced&STUDY_ID=6a270c2e609d6ae583c06396&STUDY_ID=6a270c2e609d6ae583c06396&SESSION_ID=6a27231e848baeb2f820669b?PROLIFIC_PID=69886a7e4ed41aea28fefced&SESSION_ID=6a27231e848baeb2f820669b?","en-US,en;q=0.9","69886a7e4ed41aea28fefced","6a270c2e609d6ae583c06396","6a27231e848baeb2f820669b?","69886a7e4ed41aea28fefced","6a270c2e609d6ae583c06396","6a27231e848baeb2f820669b?","30","[6,2,23,5,30,19,21,9,15,20,4,8,18,26,27,14,17,29,11,3,16,10,24,13,1,12,22,25,7,28]","[""U6"",""P2"",""U23"",""P5"",""P30"",""P19"",""P21"",""U9"",""U15"",""P20"",""U4"",""U8"",""U18"",""U26"",""P27"",""U14"",""P17"",""U29"",""U11"",""U3"",""P16"",""U10"",""P24"",""P13"",""U1"",""U12"",""U22"",""U25"",""P7"",""U28""]","[""P6"",""U2"",""P23"",""U5"",""U30"",""U19"",""U21"",""P9"",""P15"",""U20"",""P4"",""P8"",""P18"",""P26"",""U27"",""P14"",""U17"",""P29"",""P11"",""P3"",""U16"",""P10"",""U24"",""U13"",""P1"",""P12"",""P22"",""P25"",""U7"",""P28""]","4","4","0","0","1","1","","16949","","{""confidence_rating"":""Neutral""}","confidence_question","[0]","","","","","","","","","lamp","Unpredictable","","","","U14","14","1","16","","","","","","","","","","","","","Neutral"
"","","","","","video-keyboard-response","80","2.0.0","846099","101","1","2026-06-08 20:19:07","segmentation_norming_randomized_order_maxrun_attention_v4","76.32.236.39","Mozilla/5.0 (X11; Linux x86_64) AppleWebKit/537.36 (KHTML, like Gecko) Chrome/142.0.0.0 Safari/537.36","WebKit","Chrome","142.0.0.0","Linux","","https://uencdihehs.cognition.run/?PROLIFIC_PID=69886a7e4ed41aea28fefced&STUDY_ID=6a270c2e609d6ae583c06396&STUDY_ID=6a270c2e609d6ae583c06396&SESSION_ID=6a27231e848baeb2f820669b?PROLIFIC_PID=69886a7e4ed41aea28fefced&SESSION_ID=6a27231e848baeb2f820669b?","en-US,en;q=0.9","69886a7e4ed41aea28fefced","6a270c2e609d6ae583c06396","6a27231e848baeb2f820669b?","69886a7e4ed41aea28fefced","6a270c2e609d6ae583c06396","6a27231e848baeb2f820669b?","30","[6,2,23,5,30,19,21,9,15,20,4,8,18,26,27,14,17,29,11,3,16,10,24,13,1,12,22,25,7,28]","[""U6"",""P2"",""U23"",""P5"",""P30"",""P19"",""P21"",""U9"",""U15"",""P20"",""U4"",""U8"",""U18"",""U26"",""P27"",""U14"",""P17"",""U29"",""U11"",""U3"",""P16"",""U10"",""P24"",""P13"",""U1"",""U12"",""U22"",""U25"",""P7"",""U28""]","[""P6"",""U2"",""P23"",""U5"",""U30"",""U19"",""U21"",""P9"",""P15"",""U20"",""P4"",""P8"",""P18"",""P26"",""U27"",""P14"",""U17"",""P29"",""P11"",""P3"",""U16"",""P10"",""U24"",""U13"",""P1"",""P12"",""P22"",""P25"",""U7"",""P28""]","4","4","0","0","1","1","","null","[""music_v1.mp4""]","null","segmentation_video","","","","","","","","","music_v1.mp4","music","Predictable","[1.95773,4.691603,6.391348,8.14297,9.384235,10.614555,12.15955,13.994047,15.114182,17.172102,18.343971,20.648227,22.096886,24.448895,25.333108,27.687753,29.185728,30.272633,31.797,33.588958,36.056352,37.640643]","22","","P17","17","1","17","0.884212999999999","false","false","false","","false","0","0","false","false","false","false",""
"","","","","","survey-multi-choice","83","2.0.0","849923","101","1","2026-06-08 20:19:07","segmentation_norming_randomized_order_maxrun_attention_v4","76.32.236.39","Mozilla/5.0 (X11; Linux x86_64) AppleWebKit/537.36 (KHTML, like Gecko) Chrome/142.0.0.0 Safari/537.36","WebKit","Chrome","142.0.0.0","Linux","","https://uencdihehs.cognition.run/?PROLIFIC_PID=69886a7e4ed41aea28fefced&STUDY_ID=6a270c2e609d6ae583c06396&STUDY_ID=6a270c2e609d6ae583c06396&SESSION_ID=6a27231e848baeb2f820669b?PROLIFIC_PID=69886a7e4ed41aea28fefced&SESSION_ID=6a27231e848baeb2f820669b?","en-US,en;q=0.9","69886a7e4ed41aea28fefced","6a270c2e609d6ae583c06396","6a27231e848baeb2f820669b?","69886a7e4ed41aea28fefced","6a270c2e609d6ae583c06396","6a27231e848baeb2f820669b?","30","[6,2,23,5,30,19,21,9,15,20,4,8,18,26,27,14,17,29,11,3,16,10,24,13,1,12,22,25,7,28]","[""U6"",""P2"",""U23"",""P5"",""P30"",""P19"",""P21"",""U9"",""U15"",""P20"",""U4"",""U8"",""U18"",""U26"",""P27"",""U14"",""P17"",""U29"",""U11"",""U3"",""P16"",""U10"",""P24"",""P13"",""U1"",""U12"",""U22"",""U25"",""P7"",""U28""]","[""P6"",""U2"",""P23"",""U5"",""U30"",""U19"",""U21"",""P9"",""P15"",""U20"",""P4"",""P8"",""P18"",""P26"",""U27"",""P14"",""U17"",""P29"",""P11"",""P3"",""U16"",""P10"",""U24"",""U13"",""P1"",""P12"",""P22"",""P25"",""U7"",""P28""]","4","4","0","0","1","1","","3822","","{""confidence_rating"":""Neutral""}","confidence_question","[0]","","","","","","","","","music","Predictable","","","","P17","17","1","17","","","","","","","","","","","","","Neutral"
"","","","","","video-keyboard-response","84","2.0.0","871679","101","1","2026-06-08 20:19:07","segmentation_norming_randomized_order_maxrun_attention_v4","76.32.236.39","Mozilla/5.0 (X11; Linux x86_64) AppleWebKit/537.36 (KHTML, like Gecko) Chrome/142.0.0.0 Safari/537.36","WebKit","Chrome","142.0.0.0","Linux","","https://uencdihehs.cognition.run/?PROLIFIC_PID=69886a7e4ed41aea28fefced&STUDY_ID=6a270c2e609d6ae583c06396&STUDY_ID=6a270c2e609d6ae583c06396&SESSION_ID=6a27231e848baeb2f820669b?PROLIFIC_PID=69886a7e4ed41aea28fefced&SESSION_ID=6a27231e848baeb2f820669b?","en-US,en;q=0.9","69886a7e4ed41aea28fefced","6a270c2e609d6ae583c06396","6a27231e848baeb2f820669b?","69886a7e4ed41aea28fefced","6a270c2e609d6ae583c06396","6a27231e848baeb2f820669b?","30","[6,2,23,5,30,19,21,9,15,20,4,8,18,26,27,14,17,29,11,3,16,10,24,13,1,12,22,25,7,28]","[""U6"",""P2"",""U23"",""P5"",""P30"",""P19"",""P21"",""U9"",""U15"",""P20"",""U4"",""U8"",""U18"",""U26"",""P27"",""U14"",""P17"",""U29"",""U11"",""U3"",""P16"",""U10"",""P24"",""P13"",""U1"",""U12"",""U22"",""U25"",""P7"",""U28""]","[""P6"",""U2"",""P23"",""U5"",""U30"",""U19"",""U21"",""P9"",""P15"",""U20"",""P4"",""P8"",""P18"",""P26"",""U27"",""P14"",""U17"",""P29"",""P11"",""P3"",""U16"",""P10"",""U24"",""U13"",""P1"",""P12"",""P22"",""P25"",""U7"",""P28""]","4","4","0","0","1","1","","null","[""walking_v2.mp4""]","null","segmentation_video","","","","","","","","","walking_v2.mp4","walking","Unpredictable","[2.757146,4.96484,6.420746,7.57229,9.451562,10.974822,12.260266,13.223061,14.84693,16.205193,17.956419,19.485401,21.099752]","13","","U29","29","1","18","0.9627949999999998","false","false","false","","false","0","0","false","false","false","false",""
"","","","","","survey-multi-choice","87","2.0.0","885847","101","1","2026-06-08 20:19:07","segmentation_norming_randomized_order_maxrun_attention_v4","76.32.236.39","Mozilla/5.0 (X11; Linux x86_64) AppleWebKit/537.36 (KHTML, like Gecko) Chrome/142.0.0.0 Safari/537.36","WebKit","Chrome","142.0.0.0","Linux","","https://uencdihehs.cognition.run/?PROLIFIC_PID=69886a7e4ed41aea28fefced&STUDY_ID=6a270c2e609d6ae583c06396&STUDY_ID=6a270c2e609d6ae583c06396&SESSION_ID=6a27231e848baeb2f820669b?PROLIFIC_PID=69886a7e4ed41aea28fefced&SESSION_ID=6a27231e848baeb2f820669b?","en-US,en;q=0.9","69886a7e4ed41aea28fefced","6a270c2e609d6ae583c06396","6a27231e848baeb2f820669b?","69886a7e4ed41aea28fefced","6a270c2e609d6ae583c06396","6a27231e848baeb2f820669b?","30","[6,2,23,5,30,19,21,9,15,20,4,8,18,26,27,14,17,29,11,3,16,10,24,13,1,12,22,25,7,28]","[""U6"",""P2"",""U23"",""P5"",""P30"",""P19"",""P21"",""U9"",""U15"",""P20"",""U4"",""U8"",""U18"",""U26"",""P27"",""U14"",""P17"",""U29"",""U11"",""U3"",""P16"",""U10"",""P24"",""P13"",""U1"",""U12"",""U22"",""U25"",""P7"",""U28""]","[""P6"",""U2"",""P23"",""U5"",""U30"",""U19"",""U21"",""P9"",""P15"",""U20"",""P4"",""P8"",""P18"",""P26"",""U27"",""P14"",""U17"",""P29"",""P11"",""P3"",""U16"",""P10"",""U24"",""U13"",""P1"",""P12"",""P22"",""P25"",""U7"",""P28""]","4","4","0","0","1","1","","14166","","{""confidence_rating"":""Neutral""}","confidence_question","[0]","","","","","","","","","walking","Unpredictable","","","","U29","29","1","18","","","","","","","","","","","","","Neutral"
"","","","","","video-keyboard-response","88","2.0.0","917075","101","1","2026-06-08 20:19:07","segmentation_norming_randomized_order_maxrun_attention_v4","76.32.236.39","Mozilla/5.0 (X11; Linux x86_64) AppleWebKit/537.36 (KHTML, like Gecko) Chrome/142.0.0.0 Safari/537.36","WebKit","Chrome","142.0.0.0","Linux","","https://uencdihehs.cognition.run/?PROLIFIC_PID=69886a7e4ed41aea28fefced&STUDY_ID=6a270c2e609d6ae583c06396&STUDY_ID=6a270c2e609d6ae583c06396&SESSION_ID=6a27231e848baeb2f820669b?PROLIFIC_PID=69886a7e4ed41aea28fefced&SESSION_ID=6a27231e848baeb2f820669b?","en-US,en;q=0.9","69886a7e4ed41aea28fefced","6a270c2e609d6ae583c06396","6a27231e848baeb2f820669b?","69886a7e4ed41aea28fefced","6a270c2e609d6ae583c06396","6a27231e848baeb2f820669b?","30","[6,2,23,5,30,19,21,9,15,20,4,8,18,26,27,14,17,29,11,3,16,10,24,13,1,12,22,25,7,28]","[""U6"",""P2"",""U23"",""P5"",""P30"",""P19"",""P21"",""U9"",""U15"",""P20"",""U4"",""U8"",""U18"",""U26"",""P27"",""U14"",""P17"",""U29"",""U11"",""U3"",""P16"",""U10"",""P24"",""P13"",""U1"",""U12"",""U22"",""U25"",""P7"",""U28""]","[""P6"",""U2"",""P23"",""U5"",""U30"",""U19"",""U21"",""P9"",""P15"",""U20"",""P4"",""P8"",""P18"",""P26"",""U27"",""P14"",""U17"",""P29"",""P11"",""P3"",""U16"",""P10"",""U24"",""U13"",""P1"",""P12"",""P22"",""P25"",""U7"",""P28""]","4","4","0","0","1","1","","null","[""fireplace_v2.mp4""]","null","segmentation_video","","","","","","","","","fireplace_v2.mp4","fireplace","Unpredictable","[1.752714,3.090393,4.241335,6.429156,10.048631,10.943322,11.886053,12.918958,14.930604,16.91943,19.08454,19.966595,21.206901,22.348865,24.303616,26.669261,29.760767]","17","","U11","11","1","19","0.8820550000000011","false","false","false","","false","0","0","false","false","false","false",""
"","","","","","survey-multi-choice","91","2.0.0","934898","101","1","2026-06-08 20:19:07","segmentation_norming_randomized_order_maxrun_attention_v4","76.32.236.39","Mozilla/5.0 (X11; Linux x86_64) AppleWebKit/537.36 (KHTML, like Gecko) Chrome/142.0.0.0 Safari/537.36","WebKit","Chrome","142.0.0.0","Linux","","https://uencdihehs.cognition.run/?PROLIFIC_PID=69886a7e4ed41aea28fefced&STUDY_ID=6a270c2e609d6ae583c06396&STUDY_ID=6a270c2e609d6ae583c06396&SESSION_ID=6a27231e848baeb2f820669b?PROLIFIC_PID=69886a7e4ed41aea28fefced&SESSION_ID=6a27231e848baeb2f820669b?","en-US,en;q=0.9","69886a7e4ed41aea28fefced","6a270c2e609d6ae583c06396","6a27231e848baeb2f820669b?","69886a7e4ed41aea28fefced","6a270c2e609d6ae583c06396","6a27231e848baeb2f820669b?","30","[6,2,23,5,30,19,21,9,15,20,4,8,18,26,27,14,17,29,11,3,16,10,24,13,1,12,22,25,7,28]","[""U6"",""P2"",""U23"",""P5"",""P30"",""P19"",""P21"",""U9"",""U15"",""P20"",""U4"",""U8"",""U18"",""U26"",""P27"",""U14"",""P17"",""U29"",""U11"",""U3"",""P16"",""U10"",""P24"",""P13"",""U1"",""U12"",""U22"",""U25"",""P7"",""U28""]","[""P6"",""U2"",""P23"",""U5"",""U30"",""U19"",""U21"",""P9"",""P15"",""U20"",""P4"",""P8"",""P18"",""P26"",""U27"",""P14"",""U17"",""P29"",""P11"",""P3"",""U16"",""P10"",""U24"",""U13"",""P1"",""P12"",""P22"",""P25"",""U7"",""P28""]","4","4","0","0","1","1","","17821","","{""confidence_rating"":""Neutral""}","confidence_question","[0]","","","","","","","","","fireplace","Unpredictable","","","","U11","11","1","19","","","","","","","","","","","","","Neutral"
"","","","","","video-keyboard-response","92","2.0.0","954403","101","1","2026-06-08 20:19:07","segmentation_norming_randomized_order_maxrun_attention_v4","76.32.236.39","Mozilla/5.0 (X11; Linux x86_64) AppleWebKit/537.36 (KHTML, like Gecko) Chrome/142.0.0.0 Safari/537.36","WebKit","Chrome","142.0.0.0","Linux","","https://uencdihehs.cognition.run/?PROLIFIC_PID=69886a7e4ed41aea28fefced&STUDY_ID=6a270c2e609d6ae583c06396&STUDY_ID=6a270c2e609d6ae583c06396&SESSION_ID=6a27231e848baeb2f820669b?PROLIFIC_PID=69886a7e4ed41aea28fefced&SESSION_ID=6a27231e848baeb2f820669b?","en-US,en;q=0.9","69886a7e4ed41aea28fefced","6a270c2e609d6ae583c06396","6a27231e848baeb2f820669b?","69886a7e4ed41aea28fefced","6a270c2e609d6ae583c06396","6a27231e848baeb2f820669b?","30","[6,2,23,5,30,19,21,9,15,20,4,8,18,26,27,14,17,29,11,3,16,10,24,13,1,12,22,25,7,28]","[""U6"",""P2"",""U23"",""P5"",""P30"",""P19"",""P21"",""U9"",""U15"",""P20"",""U4"",""U8"",""U18"",""U26"",""P27"",""U14"",""P17"",""U29"",""U11"",""U3"",""P16"",""U10"",""P24"",""P13"",""U1"",""U12"",""U22"",""U25"",""P7"",""U28""]","[""P6"",""U2"",""P23"",""U5"",""U30"",""U19"",""U21"",""P9"",""P15"",""U20"",""P4"",""P8"",""P18"",""P26"",""U27"",""P14"",""U17"",""P29"",""P11"",""P3"",""U16"",""P10"",""U24"",""U13"",""P1"",""P12"",""P22"",""P25"",""U7"",""P28""]","4","4","0","0","1","1","","null","[""bank_v2.mp4""]","null","segmentation_video","","","","","","","","","bank_v2.mp4","bank","Unpredictable","[2.17222,4.844479,7.410851,11.802523,13.401857,15.311591,17.080751,17.980828]","8","","U3","3","1","20","0.9000769999999996","false","false","false","","false","0","0","false","false","false","false",""
"","","","","","survey-multi-choice","95","2.0.0","972839","101","1","2026-06-08 20:19:07","segmentation_norming_randomized_order_maxrun_attention_v4","76.32.236.39","Mozilla/5.0 (X11; Linux x86_64) AppleWebKit/537.36 (KHTML, like Gecko) Chrome/142.0.0.0 Safari/537.36","WebKit","Chrome","142.0.0.0","Linux","","https://uencdihehs.cognition.run/?PROLIFIC_PID=69886a7e4ed41aea28fefced&STUDY_ID=6a270c2e609d6ae583c06396&STUDY_ID=6a270c2e609d6ae583c06396&SESSION_ID=6a27231e848baeb2f820669b?PROLIFIC_PID=69886a7e4ed41aea28fefced&SESSION_ID=6a27231e848baeb2f820669b?","en-US,en;q=0.9","69886a7e4ed41aea28fefced","6a270c2e609d6ae583c06396","6a27231e848baeb2f820669b?","69886a7e4ed41aea28fefced","6a270c2e609d6ae583c06396","6a27231e848baeb2f820669b?","30","[6,2,23,5,30,19,21,9,15,20,4,8,18,26,27,14,17,29,11,3,16,10,24,13,1,12,22,25,7,28]","[""U6"",""P2"",""U23"",""P5"",""P30"",""P19"",""P21"",""U9"",""U15"",""P20"",""U4"",""U8"",""U18"",""U26"",""P27"",""U14"",""P17"",""U29"",""U11"",""U3"",""P16"",""U10"",""P24"",""P13"",""U1"",""U12"",""U22"",""U25"",""P7"",""U28""]","[""P6"",""U2"",""P23"",""U5"",""U30"",""U19"",""U21"",""P9"",""P15"",""U20"",""P4"",""P8"",""P18"",""P26"",""U27"",""P14"",""U17"",""P29"",""P11"",""P3"",""U16"",""P10"",""U24"",""U13"",""P1"",""P12"",""P22"",""P25"",""U7"",""P28""]","4","4","0","0","1","1","","18434","","{""confidence_rating"":""Slightly unconfident""}","confidence_question","[0]","","","","","","","","","bank","Unpredictable","","","","U3","3","1","20","","","","","","","","","","","","","Slightly unconfident"
"","","","","","video-keyboard-response","96","2.0.0","1003032","101","1","2026-06-08 20:19:07","segmentation_norming_randomized_order_maxrun_attention_v4","76.32.236.39","Mozilla/5.0 (X11; Linux x86_64) AppleWebKit/537.36 (KHTML, like Gecko) Chrome/142.0.0.0 Safari/537.36","WebKit","Chrome","142.0.0.0","Linux","","https://uencdihehs.cognition.run/?PROLIFIC_PID=69886a7e4ed41aea28fefced&STUDY_ID=6a270c2e609d6ae583c06396&STUDY_ID=6a270c2e609d6ae583c06396&SESSION_ID=6a27231e848baeb2f820669b?PROLIFIC_PID=69886a7e4ed41aea28fefced&SESSION_ID=6a27231e848baeb2f820669b?","en-US,en;q=0.9","69886a7e4ed41aea28fefced","6a270c2e609d6ae583c06396","6a27231e848baeb2f820669b?","69886a7e4ed41aea28fefced","6a270c2e609d6ae583c06396","6a27231e848baeb2f820669b?","30","[6,2,23,5,30,19,21,9,15,20,4,8,18,26,27,14,17,29,11,3,16,10,24,13,1,12,22,25,7,28]","[""U6"",""P2"",""U23"",""P5"",""P30"",""P19"",""P21"",""U9"",""U15"",""P20"",""U4"",""U8"",""U18"",""U26"",""P27"",""U14"",""P17"",""U29"",""U11"",""U3"",""P16"",""U10"",""P24"",""P13"",""U1"",""U12"",""U22"",""U25"",""P7"",""U28""]","[""P6"",""U2"",""P23"",""U5"",""U30"",""U19"",""U21"",""P9"",""P15"",""U20"",""P4"",""P8"",""P18"",""P26"",""U27"",""P14"",""U17"",""P29"",""P11"",""P3"",""U16"",""P10"",""U24"",""U13"",""P1"",""P12"",""P22"",""P25"",""U7"",""P28""]","4","4","0","0","1","1","","null","[""mouse_v1.mp4""]","null","segmentation_video","","","","","","","","","mouse_v1.mp4","mouse","Predictable","[2.92733,6.560502,8.328895,12.065811,13.041531,14.691982,16.269055,18.113315,21.102819,22.398454,24.301529,26.6971,28.28051,29.520283]","14","","P16","16","1","21","0.9757200000000008","false","false","false","","false","0","0","false","false","false","false",""
"","","","","","survey-multi-choice","99","2.0.0","1008808","101","1","2026-06-08 20:19:07","segmentation_norming_randomized_order_maxrun_attention_v4","76.32.236.39","Mozilla/5.0 (X11; Linux x86_64) AppleWebKit/537.36 (KHTML, like Gecko) Chrome/142.0.0.0 Safari/537.36","WebKit","Chrome","142.0.0.0","Linux","","https://uencdihehs.cognition.run/?PROLIFIC_PID=69886a7e4ed41aea28fefced&STUDY_ID=6a270c2e609d6ae583c06396&STUDY_ID=6a270c2e609d6ae583c06396&SESSION_ID=6a27231e848baeb2f820669b?PROLIFIC_PID=69886a7e4ed41aea28fefced&SESSION_ID=6a27231e848baeb2f820669b?","en-US,en;q=0.9","69886a7e4ed41aea28fefced","6a270c2e609d6ae583c06396","6a27231e848baeb2f820669b?","69886a7e4ed41aea28fefced","6a270c2e609d6ae583c06396","6a27231e848baeb2f820669b?","30","[6,2,23,5,30,19,21,9,15,20,4,8,18,26,27,14,17,29,11,3,16,10,24,13,1,12,22,25,7,28]","[""U6"",""P2"",""U23"",""P5"",""P30"",""P19"",""P21"",""U9"",""U15"",""P20"",""U4"",""U8"",""U18"",""U26"",""P27"",""U14"",""P17"",""U29"",""U11"",""U3"",""P16"",""U10"",""P24"",""P13"",""U1"",""U12"",""U22"",""U25"",""P7"",""U28""]","[""P6"",""U2"",""P23"",""U5"",""U30"",""U19"",""U21"",""P9"",""P15"",""U20"",""P4"",""P8"",""P18"",""P26"",""U27"",""P14"",""U17"",""P29"",""P11"",""P3"",""U16"",""P10"",""U24"",""U13"",""P1"",""P12"",""P22"",""P25"",""U7"",""P28""]","4","4","0","0","1","1","","5775","","{""confidence_rating"":""Neutral""}","confidence_question","[0]","","","","","","","","","mouse","Predictable","","","","P16","16","1","21","","","","","","","","","","","","","Neutral"
"","","","","","video-keyboard-response","100","2.0.0","1039533","101","1","2026-06-08 20:19:07","segmentation_norming_randomized_order_maxrun_attention_v4","76.32.236.39","Mozilla/5.0 (X11; Linux x86_64) AppleWebKit/537.36 (KHTML, like Gecko) Chrome/142.0.0.0 Safari/537.36","WebKit","Chrome","142.0.0.0","Linux","","https://uencdihehs.cognition.run/?PROLIFIC_PID=69886a7e4ed41aea28fefced&STUDY_ID=6a270c2e609d6ae583c06396&STUDY_ID=6a270c2e609d6ae583c06396&SESSION_ID=6a27231e848baeb2f820669b?PROLIFIC_PID=69886a7e4ed41aea28fefced&SESSION_ID=6a27231e848baeb2f820669b?","en-US,en;q=0.9","69886a7e4ed41aea28fefced","6a270c2e609d6ae583c06396","6a27231e848baeb2f820669b?","69886a7e4ed41aea28fefced","6a270c2e609d6ae583c06396","6a27231e848baeb2f820669b?","30","[6,2,23,5,30,19,21,9,15,20,4,8,18,26,27,14,17,29,11,3,16,10,24,13,1,12,22,25,7,28]","[""U6"",""P2"",""U23"",""P5"",""P30"",""P19"",""P21"",""U9"",""U15"",""P20"",""U4"",""U8"",""U18"",""U26"",""P27"",""U14"",""P17"",""U29"",""U11"",""U3"",""P16"",""U10"",""P24"",""P13"",""U1"",""U12"",""U22"",""U25"",""P7"",""U28""]","[""P6"",""U2"",""P23"",""U5"",""U30"",""U19"",""U21"",""P9"",""P15"",""U20"",""P4"",""P8"",""P18"",""P26"",""U27"",""P14"",""U17"",""P29"",""P11"",""P3"",""U16"",""P10"",""U24"",""U13"",""P1"",""P12"",""P22"",""P25"",""U7"",""P28""]","4","4","0","0","1","1","","null","[""cleaning_v2.mp4""]","null","segmentation_video","","","","","","","","","cleaning_v2.mp4","cleaning","Unpredictable","[1.298877,2.254035,3.893455,4.703147,5.834999,7.686401,8.845823,9.772511,11.490641,13.02031,14.289079,15.627443,16.3986,17.620047,18.254092,20.117197,20.878928,22.243956,24.431523,25.74555,27.155694,28.262618]","22","","U10","10","1","22","0.6340450000000004","false","false","false","","false","0","0","false","false","false","false",""
"","","","","","survey-multi-choice","103","2.0.0","1042812","101","1","2026-06-08 20:19:07","segmentation_norming_randomized_order_maxrun_attention_v4","76.32.236.39","Mozilla/5.0 (X11; Linux x86_64) AppleWebKit/537.36 (KHTML, like Gecko) Chrome/142.0.0.0 Safari/537.36","WebKit","Chrome","142.0.0.0","Linux","","https://uencdihehs.cognition.run/?PROLIFIC_PID=69886a7e4ed41aea28fefced&STUDY_ID=6a270c2e609d6ae583c06396&STUDY_ID=6a270c2e609d6ae583c06396&SESSION_ID=6a27231e848baeb2f820669b?PROLIFIC_PID=69886a7e4ed41aea28fefced&SESSION_ID=6a27231e848baeb2f820669b?","en-US,en;q=0.9","69886a7e4ed41aea28fefced","6a270c2e609d6ae583c06396","6a27231e848baeb2f820669b?","69886a7e4ed41aea28fefced","6a270c2e609d6ae583c06396","6a27231e848baeb2f820669b?","30","[6,2,23,5,30,19,21,9,15,20,4,8,18,26,27,14,17,29,11,3,16,10,24,13,1,12,22,25,7,28]","[""U6"",""P2"",""U23"",""P5"",""P30"",""P19"",""P21"",""U9"",""U15"",""P20"",""U4"",""U8"",""U18"",""U26"",""P27"",""U14"",""P17"",""U29"",""U11"",""U3"",""P16"",""U10"",""P24"",""P13"",""U1"",""U12"",""U22"",""U25"",""P7"",""U28""]","[""P6"",""U2"",""P23"",""U5"",""U30"",""U19"",""U21"",""P9"",""P15"",""U20"",""P4"",""P8"",""P18"",""P26"",""U27"",""P14"",""U17"",""P29"",""P11"",""P3"",""U16"",""P10"",""U24"",""U13"",""P1"",""P12"",""P22"",""P25"",""U7"",""P28""]","4","4","0","0","1","1","","3277","","{""confidence_rating"":""Moderately confident""}","confidence_question","[0]","","","","","","","","","cleaning","Unpredictable","","","","U10","10","1","22","","","","","","","","","","","","","Moderately confident"
"","","","","","video-keyboard-response","104","2.0.0","1067203","101","1","2026-06-08 20:19:07","segmentation_norming_randomized_order_maxrun_attention_v4","76.32.236.39","Mozilla/5.0 (X11; Linux x86_64) AppleWebKit/537.36 (KHTML, like Gecko) Chrome/142.0.0.0 Safari/537.36","WebKit","Chrome","142.0.0.0","Linux","","https://uencdihehs.cognition.run/?PROLIFIC_PID=69886a7e4ed41aea28fefced&STUDY_ID=6a270c2e609d6ae583c06396&STUDY_ID=6a270c2e609d6ae583c06396&SESSION_ID=6a27231e848baeb2f820669b?PROLIFIC_PID=69886a7e4ed41aea28fefced&SESSION_ID=6a27231e848baeb2f820669b?","en-US,en;q=0.9","69886a7e4ed41aea28fefced","6a270c2e609d6ae583c06396","6a27231e848baeb2f820669b?","69886a7e4ed41aea28fefced","6a270c2e609d6ae583c06396","6a27231e848baeb2f820669b?","30","[6,2,23,5,30,19,21,9,15,20,4,8,18,26,27,14,17,29,11,3,16,10,24,13,1,12,22,25,7,28]","[""U6"",""P2"",""U23"",""P5"",""P30"",""P19"",""P21"",""U9"",""U15"",""P20"",""U4"",""U8"",""U18"",""U26"",""P27"",""U14"",""P17"",""U29"",""U11"",""U3"",""P16"",""U10"",""P24"",""P13"",""U1"",""U12"",""U22"",""U25"",""P7"",""U28""]","[""P6"",""U2"",""P23"",""U5"",""U30"",""U19"",""U21"",""P9"",""P15"",""U20"",""P4"",""P8"",""P18"",""P26"",""U27"",""P14"",""U17"",""P29"",""P11"",""P3"",""U16"",""P10"",""U24"",""U13"",""P1"",""P12"",""P22"",""P25"",""U7"",""P28""]","4","4","0","0","1","1","","null","[""skateboard_v1.mp4""]","null","segmentation_video","","","","","","","","","skateboard_v1.mp4","skateboard","Predictable","[1.037059,1.801793,3.133041,4.918916,6.163746,7.556568,10.480392,13.557294,14.753575,16.045577,19.801855,21.750385,23.368244]","13","","P24","24","1","23","0.764734","false","false","false","","false","0","0","false","false","false","false",""
