"success","timeout","failed_images","failed_audio","failed_video","trial_type","trial_index","plugin_version","time_elapsed","run_id","condition","recorded_at","source_code_version","ip","user_agent","device","browser","browser_version","platform","platform_version","referer","accept_language","PROLIFIC_PID","STUDY_ID","SESSION_ID","subject_id","study_id","session_id","pair_count","randomized_pair_order","block1_codes","block2_codes","max_run_block1","max_run_block2","fullscreen_exit_count","tab_switch_count","video_attention_failure_count","total_attention_violation_count","view_history","rt","stimulus","response","trial_kind","question_order","spacebar_question_answer","attention_question_answer","spacebar_question_correct","attention_question_correct","instruction_check_passed","demo_index","demo_code","stimulus_file","stimulus_name","predictability","boundary_times_sec","boundary_count","value","video_code","pair_number","block","global_position_in_block","min_press_gap_sec","no_press_failure","rapid_press_failure","video_attention_failed","video_attention_failure_type","last_video_had_any_attention_violation","current_video_fullscreen_exit_count","current_video_tab_switch_count","current_video_had_fullscreen_exit","current_video_had_tab_switch","current_video_had_video_attention_failure","skipped_video_debug","confidence_rating"
"true","false","[]","[]","[]","preload","0","2.0.0","315","95","1","2026-06-08 19:24:25","segmentation_norming_randomized_order_maxrun_attention_v4","205.175.106.28","Mozilla/5.0 (Macintosh; Intel Mac OS X 10_15_7) AppleWebKit/605.1.15 (KHTML, like Gecko) Version/26.5 Safari/605.1.15","Macintosh","Safari","26.5","OS X","10_15_7","https://uencdihehs.cognition.run/","en-US,en;q=0.9","6a163d3b64b0819643240fdb","6a270c2e609d6ae583c06396","6a270e6b003ebe52f7094fd7?","6a163d3b64b0819643240fdb","6a270c2e609d6ae583c06396","6a270e6b003ebe52f7094fd7?","30","[20,27,15,10,2,13,12,5,26,21,29,9,16,1,24,25,22,14,30,28,7,23,11,3,4,18,17,6,19,8]","[""U20"",""P27"",""P15"",""P10"",""P2"",""U13"",""P12"",""U5"",""P26"",""P21"",""P29"",""P9"",""P16"",""U1"",""P24"",""U25"",""P22"",""U14"",""U30"",""P28"",""P7"",""P23"",""U11"",""P3"",""U4"",""U18"",""U17"",""U6"",""U19"",""P8""]","[""P20"",""U27"",""U15"",""U10"",""U2"",""P13"",""U12"",""P5"",""U26"",""U21"",""U29"",""U9"",""U16"",""P1"",""U24"",""P25"",""U22"",""P14"",""P30"",""U28"",""U7"",""U23"",""P11"",""U3"",""P4"",""P18"",""P17"",""P6"",""P19"",""U8""]","5","5","0","0","0","0","","","","","","","","","","","","","","","","","","","","","","","","","","","","","","","","","","","",""
"","","","","","instructions","1","2.0.0","5001","95","1","2026-06-08 19:24:25","segmentation_norming_randomized_order_maxrun_attention_v4","205.175.106.28","Mozilla/5.0 (Macintosh; Intel Mac OS X 10_15_7) AppleWebKit/605.1.15 (KHTML, like Gecko) Version/26.5 Safari/605.1.15","Macintosh","Safari","26.5","OS X","10_15_7","https://uencdihehs.cognition.run/","en-US,en;q=0.9","6a163d3b64b0819643240fdb","6a270c2e609d6ae583c06396","6a270e6b003ebe52f7094fd7?","6a163d3b64b0819643240fdb","6a270c2e609d6ae583c06396","6a270e6b003ebe52f7094fd7?","30","[20,27,15,10,2,13,12,5,26,21,29,9,16,1,24,25,22,14,30,28,7,23,11,3,4,18,17,6,19,8]","[""U20"",""P27"",""P15"",""P10"",""P2"",""U13"",""P12"",""U5"",""P26"",""P21"",""P29"",""P9"",""P16"",""U1"",""P24"",""U25"",""P22"",""U14"",""U30"",""P28"",""P7"",""P23"",""U11"",""P3"",""U4"",""U18"",""U17"",""U6"",""U19"",""P8""]","[""P20"",""U27"",""U15"",""U10"",""U2"",""P13"",""U12"",""P5"",""U26"",""U21"",""U29"",""U9"",""U16"",""P1"",""U24"",""P25"",""U22"",""P14"",""P30"",""U28"",""U7"",""U23"",""P11"",""U3"",""P4"",""P18"",""P17"",""P6"",""P19"",""U8""]","5","5","0","0","0","0","[{""page_index"":0,""viewing_time"":4683}]","4683","","","","","","","","","","","","","","","","","","","","","","","","","","","","","","","","","",""
"true","","","","","fullscreen","2","2.0.0","7499","95","1","2026-06-08 19:24:25","segmentation_norming_randomized_order_maxrun_attention_v4","205.175.106.28","Mozilla/5.0 (Macintosh; Intel Mac OS X 10_15_7) AppleWebKit/605.1.15 (KHTML, like Gecko) Version/26.5 Safari/605.1.15","Macintosh","Safari","26.5","OS X","10_15_7","https://uencdihehs.cognition.run/","en-US,en;q=0.9","6a163d3b64b0819643240fdb","6a270c2e609d6ae583c06396","6a270e6b003ebe52f7094fd7?","6a163d3b64b0819643240fdb","6a270c2e609d6ae583c06396","6a270e6b003ebe52f7094fd7?","30","[20,27,15,10,2,13,12,5,26,21,29,9,16,1,24,25,22,14,30,28,7,23,11,3,4,18,17,6,19,8]","[""U20"",""P27"",""P15"",""P10"",""P2"",""U13"",""P12"",""U5"",""P26"",""P21"",""P29"",""P9"",""P16"",""U1"",""P24"",""U25"",""P22"",""U14"",""U30"",""P28"",""P7"",""P23"",""U11"",""P3"",""U4"",""U18"",""U17"",""U6"",""U19"",""P8""]","[""P20"",""U27"",""U15"",""U10"",""U2"",""P13"",""U12"",""P5"",""U26"",""U21"",""U29"",""U9"",""U16"",""P1"",""U24"",""P25"",""U22"",""P14"",""P30"",""U28"",""U7"",""U23"",""P11"",""U3"",""P4"",""P18"",""P17"",""P6"",""P19"",""U8""]","5","5","0","0","0","0","","1494","","","","","","","","","","","","","","","","","","","","","","","","","","","","","","","","","",""
"","","","","","html-button-response","3","2.0.0","13665","95","1","2026-06-08 19:24:25","segmentation_norming_randomized_order_maxrun_attention_v4","205.175.106.28","Mozilla/5.0 (Macintosh; Intel Mac OS X 10_15_7) AppleWebKit/605.1.15 (KHTML, like Gecko) Version/26.5 Safari/605.1.15","Macintosh","Safari","26.5","OS X","10_15_7","https://uencdihehs.cognition.run/","en-US,en;q=0.9","6a163d3b64b0819643240fdb","6a270c2e609d6ae583c06396","6a270e6b003ebe52f7094fd7?","6a163d3b64b0819643240fdb","6a270c2e609d6ae583c06396","6a270e6b003ebe52f7094fd7?","30","[20,27,15,10,2,13,12,5,26,21,29,9,16,1,24,25,22,14,30,28,7,23,11,3,4,18,17,6,19,8]","[""U20"",""P27"",""P15"",""P10"",""P2"",""U13"",""P12"",""U5"",""P26"",""P21"",""P29"",""P9"",""P16"",""U1"",""P24"",""U25"",""P22"",""U14"",""U30"",""P28"",""P7"",""P23"",""U11"",""P3"",""U4"",""U18"",""U17"",""U6"",""U19"",""P8""]","[""P20"",""U27"",""U15"",""U10"",""U2"",""P13"",""U12"",""P5"",""U26"",""U21"",""U29"",""U9"",""U16"",""P1"",""U24"",""P25"",""U22"",""P14"",""P30"",""U28"",""U7"",""U23"",""P11"",""U3"",""P4"",""P18"",""P17"",""P6"",""P19"",""U8""]","5","5","0","0","0","0","","6163","The experiment requires continuous attention and full-screen participation throughout the task.<br><br>You may be asked to exit the experiment and cancel your participation if you exit Full Screen Mode, switch tabs, or fail to meet the attention criteria more than the allowed number of times.<br><br>Please read the following instructions carefully.","0","","","","","","","","","","","","","","","","","","","","","","","","","","","","","","","",""
"","","","","","instructions","4","2.0.0","370018","95","1","2026-06-08 19:24:25","segmentation_norming_randomized_order_maxrun_attention_v4","205.175.106.28","Mozilla/5.0 (Macintosh; Intel Mac OS X 10_15_7) AppleWebKit/605.1.15 (KHTML, like Gecko) Version/26.5 Safari/605.1.15","Macintosh","Safari","26.5","OS X","10_15_7","https://uencdihehs.cognition.run/","en-US,en;q=0.9","6a163d3b64b0819643240fdb","6a270c2e609d6ae583c06396","6a270e6b003ebe52f7094fd7?","6a163d3b64b0819643240fdb","6a270c2e609d6ae583c06396","6a270e6b003ebe52f7094fd7?","30","[20,27,15,10,2,13,12,5,26,21,29,9,16,1,24,25,22,14,30,28,7,23,11,3,4,18,17,6,19,8]","[""U20"",""P27"",""P15"",""P10"",""P2"",""U13"",""P12"",""U5"",""P26"",""P21"",""P29"",""P9"",""P16"",""U1"",""P24"",""U25"",""P22"",""U14"",""U30"",""P28"",""P7"",""P23"",""U11"",""P3"",""U4"",""U18"",""U17"",""U6"",""U19"",""P8""]","[""P20"",""U27"",""U15"",""U10"",""U2"",""P13"",""U12"",""P5"",""U26"",""U21"",""U29"",""U9"",""U16"",""P1"",""U24"",""P25"",""U22"",""P14"",""P30"",""U28"",""U7"",""U23"",""P11"",""U3"",""P4"",""P18"",""P17"",""P6"",""P19"",""U8""]","5","5","0","0","0","0","[{""page_index"":0,""viewing_time"":356346}]","356346","","","","","","","","","","","","","","","","","","","","","","","","","","","","","","","","","",""
"","","","","","html-button-response","5","2.0.0","370918","95","1","2026-06-08 19:24:25","segmentation_norming_randomized_order_maxrun_attention_v4","205.175.106.28","Mozilla/5.0 (Macintosh; Intel Mac OS X 10_15_7) AppleWebKit/605.1.15 (KHTML, like Gecko) Version/26.5 Safari/605.1.15","Macintosh","Safari","26.5","OS X","10_15_7","https://uencdihehs.cognition.run/","en-US,en;q=0.9","6a163d3b64b0819643240fdb","6a270c2e609d6ae583c06396","6a270e6b003ebe52f7094fd7?","6a163d3b64b0819643240fdb","6a270c2e609d6ae583c06396","6a270e6b003ebe52f7094fd7?","30","[20,27,15,10,2,13,12,5,26,21,29,9,16,1,24,25,22,14,30,28,7,23,11,3,4,18,17,6,19,8]","[""U20"",""P27"",""P15"",""P10"",""P2"",""U13"",""P12"",""U5"",""P26"",""P21"",""P29"",""P9"",""P16"",""U1"",""P24"",""U25"",""P22"",""U14"",""U30"",""P28"",""P7"",""P23"",""U11"",""P3"",""U4"",""U18"",""U17"",""U6"",""U19"",""P8""]","[""P20"",""U27"",""U15"",""U10"",""U2"",""P13"",""U12"",""P5"",""U26"",""U21"",""U29"",""U9"",""U16"",""P1"",""U24"",""P25"",""U22"",""P14"",""P30"",""U28"",""U7"",""U23"",""P11"",""U3"",""P4"",""P18"",""P17"",""P6"",""P19"",""U8""]","5","5","0","0","0","0","","898","Please pay attention when watching videos and marking boundaries.<br><br>There are several hidden attention criteria to make sure you watch the videos carefully.<br><br>If you fail these hidden criteria more than the allowed number of times, you may be asked to exit the experiment.","0","","","","","","","","","","","","","","","","","","","","","","","","","","","","","","","",""
"","","","","","survey-multi-choice","6","2.0.0","375239","95","1","2026-06-08 19:24:25","segmentation_norming_randomized_order_maxrun_attention_v4","205.175.106.28","Mozilla/5.0 (Macintosh; Intel Mac OS X 10_15_7) AppleWebKit/605.1.15 (KHTML, like Gecko) Version/26.5 Safari/605.1.15","Macintosh","Safari","26.5","OS X","10_15_7","https://uencdihehs.cognition.run/","en-US,en;q=0.9","6a163d3b64b0819643240fdb","6a270c2e609d6ae583c06396","6a270e6b003ebe52f7094fd7?","6a163d3b64b0819643240fdb","6a270c2e609d6ae583c06396","6a270e6b003ebe52f7094fd7?","30","[20,27,15,10,2,13,12,5,26,21,29,9,16,1,24,25,22,14,30,28,7,23,11,3,4,18,17,6,19,8]","[""U20"",""P27"",""P15"",""P10"",""P2"",""U13"",""P12"",""U5"",""P26"",""P21"",""P29"",""P9"",""P16"",""U1"",""P24"",""U25"",""P22"",""U14"",""U30"",""P28"",""P7"",""P23"",""U11"",""P3"",""U4"",""U18"",""U17"",""U6"",""U19"",""P8""]","[""P20"",""U27"",""U15"",""U10"",""U2"",""P13"",""U12"",""P5"",""U26"",""U21"",""U29"",""U9"",""U16"",""P1"",""U24"",""P25"",""U22"",""P14"",""P30"",""U28"",""U7"",""U23"",""P11"",""U3"",""P4"",""P18"",""P17"",""P6"",""P19"",""U8""]","5","5","0","0","0","0","","4317","","{""spacebar_question"":""Between the smallest meaningful events or actions"",""attention_question"":""Press space bar to segment the video""}","comprehension_check","[0,1]","Between the smallest meaningful events or actions","Press space bar to segment the video","true","true","true","","","","","","","","","","","","","","","","","","","","","","","","",""
"","","","","","html-button-response","8","2.0.0","377101","95","1","2026-06-08 19:24:25","segmentation_norming_randomized_order_maxrun_attention_v4","205.175.106.28","Mozilla/5.0 (Macintosh; Intel Mac OS X 10_15_7) AppleWebKit/605.1.15 (KHTML, like Gecko) Version/26.5 Safari/605.1.15","Macintosh","Safari","26.5","OS X","10_15_7","https://uencdihehs.cognition.run/","en-US,en;q=0.9","6a163d3b64b0819643240fdb","6a270c2e609d6ae583c06396","6a270e6b003ebe52f7094fd7?","6a163d3b64b0819643240fdb","6a270c2e609d6ae583c06396","6a270e6b003ebe52f7094fd7?","30","[20,27,15,10,2,13,12,5,26,21,29,9,16,1,24,25,22,14,30,28,7,23,11,3,4,18,17,6,19,8]","[""U20"",""P27"",""P15"",""P10"",""P2"",""U13"",""P12"",""U5"",""P26"",""P21"",""P29"",""P9"",""P16"",""U1"",""P24"",""U25"",""P22"",""U14"",""U30"",""P28"",""P7"",""P23"",""U11"",""P3"",""U4"",""U18"",""U17"",""U6"",""U19"",""P8""]","[""P20"",""U27"",""U15"",""U10"",""U2"",""P13"",""U12"",""P5"",""U26"",""U21"",""U29"",""U9"",""U16"",""P1"",""U24"",""P25"",""U22"",""P14"",""P30"",""U28"",""U7"",""U23"",""P11"",""U3"",""P4"",""P18"",""P17"",""P6"",""P19"",""U8""]","5","5","0","0","0","0","","1860","You have learned the instructions for the task! Here is a demo trial.<br><br>Like what you will do in the main experiment,<br><br> you will watch a movie clip and at the same time mark off the activity in the movie into the <strong>smallest meaningful units</strong> that seem natural and meaningful to you.<br><br>Remember, tap the <strong>SPACE BAR</strong> to mark off a boundary between two <strong>smallest meaningful units</strong> of activity.<br><br>A green bar will appear at the bottom of the screen when you press the button.<br><br>","0","","","","","","","","","","","","","","","","","","","","","","","","","","","","","","","",""
"","","","","","video-keyboard-response","9","2.0.0","393871","95","1","2026-06-08 19:24:25","segmentation_norming_randomized_order_maxrun_attention_v4","205.175.106.28","Mozilla/5.0 (Macintosh; Intel Mac OS X 10_15_7) AppleWebKit/605.1.15 (KHTML, like Gecko) Version/26.5 Safari/605.1.15","Macintosh","Safari","26.5","OS X","10_15_7","https://uencdihehs.cognition.run/","en-US,en;q=0.9","6a163d3b64b0819643240fdb","6a270c2e609d6ae583c06396","6a270e6b003ebe52f7094fd7?","6a163d3b64b0819643240fdb","6a270c2e609d6ae583c06396","6a270e6b003ebe52f7094fd7?","30","[20,27,15,10,2,13,12,5,26,21,29,9,16,1,24,25,22,14,30,28,7,23,11,3,4,18,17,6,19,8]","[""U20"",""P27"",""P15"",""P10"",""P2"",""U13"",""P12"",""U5"",""P26"",""P21"",""P29"",""P9"",""P16"",""U1"",""P24"",""U25"",""P22"",""U14"",""U30"",""P28"",""P7"",""P23"",""U11"",""P3"",""U4"",""U18"",""U17"",""U6"",""U19"",""P8""]","[""P20"",""U27"",""U15"",""U10"",""U2"",""P13"",""U12"",""P5"",""U26"",""U21"",""U29"",""U9"",""U16"",""P1"",""U24"",""P25"",""U22"",""P14"",""P30"",""U28"",""U7"",""U23"",""P11"",""U3"",""P4"",""P18"",""P17"",""P6"",""P19"",""U8""]","5","5","0","0","0","0","","null","[""library_v1.mp4""]","null","demo_video","","","","","","","1","demo1","library_v1.mp4","library","Demo","[1.7099511670259058,3.1790467496834207,4.139306041651517,5.364933417306253,7.293874041666471,10.594815874998964,13.147601708670251,15.861918542675612]","8","","","","","","","","","","","","","","","","","",""
"","","","","","call-function","10","2.0.0","393873","95","1","2026-06-08 19:24:25","segmentation_norming_randomized_order_maxrun_attention_v4","205.175.106.28","Mozilla/5.0 (Macintosh; Intel Mac OS X 10_15_7) AppleWebKit/605.1.15 (KHTML, like Gecko) Version/26.5 Safari/605.1.15","Macintosh","Safari","26.5","OS X","10_15_7","https://uencdihehs.cognition.run/","en-US,en;q=0.9","6a163d3b64b0819643240fdb","6a270c2e609d6ae583c06396","6a270e6b003ebe52f7094fd7?","6a163d3b64b0819643240fdb","6a270c2e609d6ae583c06396","6a270e6b003ebe52f7094fd7?","30","[20,27,15,10,2,13,12,5,26,21,29,9,16,1,24,25,22,14,30,28,7,23,11,3,4,18,17,6,19,8]","[""U20"",""P27"",""P15"",""P10"",""P2"",""U13"",""P12"",""U5"",""P26"",""P21"",""P29"",""P9"",""P16"",""U1"",""P24"",""U25"",""P22"",""U14"",""U30"",""P28"",""P7"",""P23"",""U11"",""P3"",""U4"",""U18"",""U17"",""U6"",""U19"",""P8""]","[""P20"",""U27"",""U15"",""U10"",""U2"",""P13"",""U12"",""P5"",""U26"",""U21"",""U29"",""U9"",""U16"",""P1"",""U24"",""P25"",""U22"",""P14"",""P30"",""U28"",""U7"",""U23"",""P11"",""U3"",""P4"",""P18"",""P17"",""P6"",""P19"",""U8""]","5","5","0","0","0","0","","","","","","","","","","","","","","","","","","","","","","","","","","","","","","","","","","","",""
"","","","","","html-button-response","11","2.0.0","498054","95","1","2026-06-08 19:24:25","segmentation_norming_randomized_order_maxrun_attention_v4","205.175.106.28","Mozilla/5.0 (Macintosh; Intel Mac OS X 10_15_7) AppleWebKit/605.1.15 (KHTML, like Gecko) Version/26.5 Safari/605.1.15","Macintosh","Safari","26.5","OS X","10_15_7","https://uencdihehs.cognition.run/","en-US,en;q=0.9","6a163d3b64b0819643240fdb","6a270c2e609d6ae583c06396","6a270e6b003ebe52f7094fd7?","6a163d3b64b0819643240fdb","6a270c2e609d6ae583c06396","6a270e6b003ebe52f7094fd7?","30","[20,27,15,10,2,13,12,5,26,21,29,9,16,1,24,25,22,14,30,28,7,23,11,3,4,18,17,6,19,8]","[""U20"",""P27"",""P15"",""P10"",""P2"",""U13"",""P12"",""U5"",""P26"",""P21"",""P29"",""P9"",""P16"",""U1"",""P24"",""U25"",""P22"",""U14"",""U30"",""P28"",""P7"",""P23"",""U11"",""P3"",""U4"",""U18"",""U17"",""U6"",""U19"",""P8""]","[""P20"",""U27"",""U15"",""U10"",""U2"",""P13"",""U12"",""P5"",""U26"",""U21"",""U29"",""U9"",""U16"",""P1"",""U24"",""P25"",""U22"",""P14"",""P30"",""U28"",""U7"",""U23"",""P11"",""U3"",""P4"",""P18"",""P17"",""P6"",""P19"",""U8""]","5","5","0","0","0","0","","104178","Great! Hopefully you got an idea of what a meaningful unit is.<br><br>Remember that there is no right or wrong answer.<br><br>We just want to know which parts of the activity seem natural and meaningful to you.<br><br>Now the main experiment starts.<br><br>For each clip, while watching, remember to press the SPACE BAR whenever one <strong>smallest meaningful unit</strong> of activity ends and another begins.<br><br>","0","demo_feedback","","","","","","","","","","","","","","","","","","","","","","","","","","","","","","",""
"true","false","[]","[]","[]","preload","12","2.0.0","504742","95","1","2026-06-08 19:24:25","segmentation_norming_randomized_order_maxrun_attention_v4","205.175.106.28","Mozilla/5.0 (Macintosh; Intel Mac OS X 10_15_7) AppleWebKit/605.1.15 (KHTML, like Gecko) Version/26.5 Safari/605.1.15","Macintosh","Safari","26.5","OS X","10_15_7","https://uencdihehs.cognition.run/","en-US,en;q=0.9","6a163d3b64b0819643240fdb","6a270c2e609d6ae583c06396","6a270e6b003ebe52f7094fd7?","6a163d3b64b0819643240fdb","6a270c2e609d6ae583c06396","6a270e6b003ebe52f7094fd7?","30","[20,27,15,10,2,13,12,5,26,21,29,9,16,1,24,25,22,14,30,28,7,23,11,3,4,18,17,6,19,8]","[""U20"",""P27"",""P15"",""P10"",""P2"",""U13"",""P12"",""U5"",""P26"",""P21"",""P29"",""P9"",""P16"",""U1"",""P24"",""U25"",""P22"",""U14"",""U30"",""P28"",""P7"",""P23"",""U11"",""P3"",""U4"",""U18"",""U17"",""U6"",""U19"",""P8""]","[""P20"",""U27"",""U15"",""U10"",""U2"",""P13"",""U12"",""P5"",""U26"",""U21"",""U29"",""U9"",""U16"",""P1"",""U24"",""P25"",""U22"",""P14"",""P30"",""U28"",""U7"",""U23"",""P11"",""U3"",""P4"",""P18"",""P17"",""P6"",""P19"",""U8""]","5","5","0","0","0","0","","","","","","","","","","","","","","","","","","","","","","","","","","","","","","","","","","","",""
"","","","","","video-keyboard-response","13","2.0.0","528925","95","1","2026-06-08 19:24:25","segmentation_norming_randomized_order_maxrun_attention_v4","205.175.106.28","Mozilla/5.0 (Macintosh; Intel Mac OS X 10_15_7) AppleWebKit/605.1.15 (KHTML, like Gecko) Version/26.5 Safari/605.1.15","Macintosh","Safari","26.5","OS X","10_15_7","https://uencdihehs.cognition.run/","en-US,en;q=0.9","6a163d3b64b0819643240fdb","6a270c2e609d6ae583c06396","6a270e6b003ebe52f7094fd7?","6a163d3b64b0819643240fdb","6a270c2e609d6ae583c06396","6a270e6b003ebe52f7094fd7?","30","[20,27,15,10,2,13,12,5,26,21,29,9,16,1,24,25,22,14,30,28,7,23,11,3,4,18,17,6,19,8]","[""U20"",""P27"",""P15"",""P10"",""P2"",""U13"",""P12"",""U5"",""P26"",""P21"",""P29"",""P9"",""P16"",""U1"",""P24"",""U25"",""P22"",""U14"",""U30"",""P28"",""P7"",""P23"",""U11"",""P3"",""U4"",""U18"",""U17"",""U6"",""U19"",""P8""]","[""P20"",""U27"",""U15"",""U10"",""U2"",""P13"",""U12"",""P5"",""U26"",""U21"",""U29"",""U9"",""U16"",""P1"",""U24"",""P25"",""U22"",""P14"",""P30"",""U28"",""U7"",""U23"",""P11"",""U3"",""P4"",""P18"",""P17"",""P6"",""P19"",""U8""]","5","5","0","0","0","0","","null","[""poster_v2.mp4""]","null","segmentation_video","","","","","","","","","poster_v2.mp4","poster","Unpredictable","[1.0731352919809676,3.721718459668728,6.220910500005335,8.674521374993358,12.171331499987945,14.845010833682583,20.10121429166798,22.187390750361736,22.90429716734027]","9","","U20","20","1","1","0.7169064169785351","false","false","false","","false","0","0","false","false","false","false",""
"","","","","","survey-multi-choice","16","2.0.0","531975","95","1","2026-06-08 19:24:25","segmentation_norming_randomized_order_maxrun_attention_v4","205.175.106.28","Mozilla/5.0 (Macintosh; Intel Mac OS X 10_15_7) AppleWebKit/605.1.15 (KHTML, like Gecko) Version/26.5 Safari/605.1.15","Macintosh","Safari","26.5","OS X","10_15_7","https://uencdihehs.cognition.run/","en-US,en;q=0.9","6a163d3b64b0819643240fdb","6a270c2e609d6ae583c06396","6a270e6b003ebe52f7094fd7?","6a163d3b64b0819643240fdb","6a270c2e609d6ae583c06396","6a270e6b003ebe52f7094fd7?","30","[20,27,15,10,2,13,12,5,26,21,29,9,16,1,24,25,22,14,30,28,7,23,11,3,4,18,17,6,19,8]","[""U20"",""P27"",""P15"",""P10"",""P2"",""U13"",""P12"",""U5"",""P26"",""P21"",""P29"",""P9"",""P16"",""U1"",""P24"",""U25"",""P22"",""U14"",""U30"",""P28"",""P7"",""P23"",""U11"",""P3"",""U4"",""U18"",""U17"",""U6"",""U19"",""P8""]","[""P20"",""U27"",""U15"",""U10"",""U2"",""P13"",""U12"",""P5"",""U26"",""U21"",""U29"",""U9"",""U16"",""P1"",""U24"",""P25"",""U22"",""P14"",""P30"",""U28"",""U7"",""U23"",""P11"",""U3"",""P4"",""P18"",""P17"",""P6"",""P19"",""U8""]","5","5","0","0","0","0","","3036","","{""confidence_rating"":""Neutral""}","confidence_question","[0]","","","","","","","","","poster","Unpredictable","","","","U20","20","1","1","","","","","","","","","","","","","Neutral"
"","","","","","video-keyboard-response","17","2.0.0","563226","95","1","2026-06-08 19:24:25","segmentation_norming_randomized_order_maxrun_attention_v4","205.175.106.28","Mozilla/5.0 (Macintosh; Intel Mac OS X 10_15_7) AppleWebKit/605.1.15 (KHTML, like Gecko) Version/26.5 Safari/605.1.15","Macintosh","Safari","26.5","OS X","10_15_7","https://uencdihehs.cognition.run/","en-US,en;q=0.9","6a163d3b64b0819643240fdb","6a270c2e609d6ae583c06396","6a270e6b003ebe52f7094fd7?","6a163d3b64b0819643240fdb","6a270c2e609d6ae583c06396","6a270e6b003ebe52f7094fd7?","30","[20,27,15,10,2,13,12,5,26,21,29,9,16,1,24,25,22,14,30,28,7,23,11,3,4,18,17,6,19,8]","[""U20"",""P27"",""P15"",""P10"",""P2"",""U13"",""P12"",""U5"",""P26"",""P21"",""P29"",""P9"",""P16"",""U1"",""P24"",""U25"",""P22"",""U14"",""U30"",""P28"",""P7"",""P23"",""U11"",""P3"",""U4"",""U18"",""U17"",""U6"",""U19"",""P8""]","[""P20"",""U27"",""U15"",""U10"",""U2"",""P13"",""U12"",""P5"",""U26"",""U21"",""U29"",""U9"",""U16"",""P1"",""U24"",""P25"",""U22"",""P14"",""P30"",""U28"",""U7"",""U23"",""P11"",""U3"",""P4"",""P18"",""P17"",""P6"",""P19"",""U8""]","5","5","0","0","0","0","","null","[""tea_v1.mp4""]","null","segmentation_video","","","","","","","","","tea_v1.mp4","tea","Predictable","[6.422373421342571,11.371660254648853,18.2716881296699,24.06459183831463,27.868385795645764,29.550326754957556]","6","","P27","27","1","2","1.6819409593117918","false","false","false","","false","0","0","false","false","false","false",""
"","","","","","survey-multi-choice","20","2.0.0","729175","95","1","2026-06-08 19:24:25","segmentation_norming_randomized_order_maxrun_attention_v4","205.175.106.28","Mozilla/5.0 (Macintosh; Intel Mac OS X 10_15_7) AppleWebKit/605.1.15 (KHTML, like Gecko) Version/26.5 Safari/605.1.15","Macintosh","Safari","26.5","OS X","10_15_7","https://uencdihehs.cognition.run/","en-US,en;q=0.9","6a163d3b64b0819643240fdb","6a270c2e609d6ae583c06396","6a270e6b003ebe52f7094fd7?","6a163d3b64b0819643240fdb","6a270c2e609d6ae583c06396","6a270e6b003ebe52f7094fd7?","30","[20,27,15,10,2,13,12,5,26,21,29,9,16,1,24,25,22,14,30,28,7,23,11,3,4,18,17,6,19,8]","[""U20"",""P27"",""P15"",""P10"",""P2"",""U13"",""P12"",""U5"",""P26"",""P21"",""P29"",""P9"",""P16"",""U1"",""P24"",""U25"",""P22"",""U14"",""U30"",""P28"",""P7"",""P23"",""U11"",""P3"",""U4"",""U18"",""U17"",""U6"",""U19"",""P8""]","[""P20"",""U27"",""U15"",""U10"",""U2"",""P13"",""U12"",""P5"",""U26"",""U21"",""U29"",""U9"",""U16"",""P1"",""U24"",""P25"",""U22"",""P14"",""P30"",""U28"",""U7"",""U23"",""P11"",""U3"",""P4"",""P18"",""P17"",""P6"",""P19"",""U8""]","5","5","0","0","0","0","","165938","","{""confidence_rating"":""Neutral""}","confidence_question","[0]","","","","","","","","","tea","Predictable","","","","P27","27","1","2","","","","","","","","","","","","","Neutral"
"","","","","","video-keyboard-response","21","2.0.0","760624","95","1","2026-06-08 19:24:25","segmentation_norming_randomized_order_maxrun_attention_v4","205.175.106.28","Mozilla/5.0 (Macintosh; Intel Mac OS X 10_15_7) AppleWebKit/605.1.15 (KHTML, like Gecko) Version/26.5 Safari/605.1.15","Macintosh","Safari","26.5","OS X","10_15_7","https://uencdihehs.cognition.run/","en-US,en;q=0.9","6a163d3b64b0819643240fdb","6a270c2e609d6ae583c06396","6a270e6b003ebe52f7094fd7?","6a163d3b64b0819643240fdb","6a270c2e609d6ae583c06396","6a270e6b003ebe52f7094fd7?","30","[20,27,15,10,2,13,12,5,26,21,29,9,16,1,24,25,22,14,30,28,7,23,11,3,4,18,17,6,19,8]","[""U20"",""P27"",""P15"",""P10"",""P2"",""U13"",""P12"",""U5"",""P26"",""P21"",""P29"",""P9"",""P16"",""U1"",""P24"",""U25"",""P22"",""U14"",""U30"",""P28"",""P7"",""P23"",""U11"",""P3"",""U4"",""U18"",""U17"",""U6"",""U19"",""P8""]","[""P20"",""U27"",""U15"",""U10"",""U2"",""P13"",""U12"",""P5"",""U26"",""U21"",""U29"",""U9"",""U16"",""P1"",""U24"",""P25"",""U22"",""P14"",""P30"",""U28"",""U7"",""U23"",""P11"",""U3"",""P4"",""P18"",""P17"",""P6"",""P19"",""U8""]","5","5","0","0","0","0","","null","[""laundry_v1.mp4""]","null","segmentation_video","","","","","","","","","laundry_v1.mp4","laundry","Predictable","[1.273127250372116,4.872717541655168,8.546883833704994,12.74648950035067,22.29644466636876,24.98862083402777,30.40323233267416]","7","","P15","15","1","3","2.69217616765901","false","false","false","","false","0","0","false","false","false","false",""
"","","","","","survey-multi-choice","24","2.0.0","763562","95","1","2026-06-08 19:24:25","segmentation_norming_randomized_order_maxrun_attention_v4","205.175.106.28","Mozilla/5.0 (Macintosh; Intel Mac OS X 10_15_7) AppleWebKit/605.1.15 (KHTML, like Gecko) Version/26.5 Safari/605.1.15","Macintosh","Safari","26.5","OS X","10_15_7","https://uencdihehs.cognition.run/","en-US,en;q=0.9","6a163d3b64b0819643240fdb","6a270c2e609d6ae583c06396","6a270e6b003ebe52f7094fd7?","6a163d3b64b0819643240fdb","6a270c2e609d6ae583c06396","6a270e6b003ebe52f7094fd7?","30","[20,27,15,10,2,13,12,5,26,21,29,9,16,1,24,25,22,14,30,28,7,23,11,3,4,18,17,6,19,8]","[""U20"",""P27"",""P15"",""P10"",""P2"",""U13"",""P12"",""U5"",""P26"",""P21"",""P29"",""P9"",""P16"",""U1"",""P24"",""U25"",""P22"",""U14"",""U30"",""P28"",""P7"",""P23"",""U11"",""P3"",""U4"",""U18"",""U17"",""U6"",""U19"",""P8""]","[""P20"",""U27"",""U15"",""U10"",""U2"",""P13"",""U12"",""P5"",""U26"",""U21"",""U29"",""U9"",""U16"",""P1"",""U24"",""P25"",""U22"",""P14"",""P30"",""U28"",""U7"",""U23"",""P11"",""U3"",""P4"",""P18"",""P17"",""P6"",""P19"",""U8""]","5","5","0","0","0","0","","2930","","{""confidence_rating"":""Moderately confident""}","confidence_question","[0]","","","","","","","","","laundry","Predictable","","","","P15","15","1","3","","","","","","","","","","","","","Moderately confident"
"","","","","","video-keyboard-response","25","2.0.0","794412","95","1","2026-06-08 19:24:25","segmentation_norming_randomized_order_maxrun_attention_v4","205.175.106.28","Mozilla/5.0 (Macintosh; Intel Mac OS X 10_15_7) AppleWebKit/605.1.15 (KHTML, like Gecko) Version/26.5 Safari/605.1.15","Macintosh","Safari","26.5","OS X","10_15_7","https://uencdihehs.cognition.run/","en-US,en;q=0.9","6a163d3b64b0819643240fdb","6a270c2e609d6ae583c06396","6a270e6b003ebe52f7094fd7?","6a163d3b64b0819643240fdb","6a270c2e609d6ae583c06396","6a270e6b003ebe52f7094fd7?","30","[20,27,15,10,2,13,12,5,26,21,29,9,16,1,24,25,22,14,30,28,7,23,11,3,4,18,17,6,19,8]","[""U20"",""P27"",""P15"",""P10"",""P2"",""U13"",""P12"",""U5"",""P26"",""P21"",""P29"",""P9"",""P16"",""U1"",""P24"",""U25"",""P22"",""U14"",""U30"",""P28"",""P7"",""P23"",""U11"",""P3"",""U4"",""U18"",""U17"",""U6"",""U19"",""P8""]","[""P20"",""U27"",""U15"",""U10"",""U2"",""P13"",""U12"",""P5"",""U26"",""U21"",""U29"",""U9"",""U16"",""P1"",""U24"",""P25"",""U22"",""P14"",""P30"",""U28"",""U7"",""U23"",""P11"",""U3"",""P4"",""P18"",""P17"",""P6"",""P19"",""U8""]","5","5","0","0","0","0","","null","[""cleaning_v1.mp4""]","null","segmentation_video","","","","","","","","","cleaning_v1.mp4","cleaning","Predictable","[2.0069186273370274,7.344098126677211,10.965043128009913,18.59402971100057,20.65400875198825,22.30745508534386,25.613881543313347,27.078990710999523,28.246167001695394]","9","","P10","10","1","4","1.1671762906958705","false","false","false","","false","0","0","false","false","false","false",""
"","","","","","survey-multi-choice","28","2.0.0","797559","95","1","2026-06-08 19:24:25","segmentation_norming_randomized_order_maxrun_attention_v4","205.175.106.28","Mozilla/5.0 (Macintosh; Intel Mac OS X 10_15_7) AppleWebKit/605.1.15 (KHTML, like Gecko) Version/26.5 Safari/605.1.15","Macintosh","Safari","26.5","OS X","10_15_7","https://uencdihehs.cognition.run/","en-US,en;q=0.9","6a163d3b64b0819643240fdb","6a270c2e609d6ae583c06396","6a270e6b003ebe52f7094fd7?","6a163d3b64b0819643240fdb","6a270c2e609d6ae583c06396","6a270e6b003ebe52f7094fd7?","30","[20,27,15,10,2,13,12,5,26,21,29,9,16,1,24,25,22,14,30,28,7,23,11,3,4,18,17,6,19,8]","[""U20"",""P27"",""P15"",""P10"",""P2"",""U13"",""P12"",""U5"",""P26"",""P21"",""P29"",""P9"",""P16"",""U1"",""P24"",""U25"",""P22"",""U14"",""U30"",""P28"",""P7"",""P23"",""U11"",""P3"",""U4"",""U18"",""U17"",""U6"",""U19"",""P8""]","[""P20"",""U27"",""U15"",""U10"",""U2"",""P13"",""U12"",""P5"",""U26"",""U21"",""U29"",""U9"",""U16"",""P1"",""U24"",""P25"",""U22"",""P14"",""P30"",""U28"",""U7"",""U23"",""P11"",""U3"",""P4"",""P18"",""P17"",""P6"",""P19"",""U8""]","5","5","0","0","0","0","","3142","","{""confidence_rating"":""Moderately confident""}","confidence_question","[0]","","","","","","","","","cleaning","Predictable","","","","P10","10","1","4","","","","","","","","","","","","","Moderately confident"
"","","","","","video-keyboard-response","29","2.0.0","825732","95","1","2026-06-08 19:24:25","segmentation_norming_randomized_order_maxrun_attention_v4","205.175.106.28","Mozilla/5.0 (Macintosh; Intel Mac OS X 10_15_7) AppleWebKit/605.1.15 (KHTML, like Gecko) Version/26.5 Safari/605.1.15","Macintosh","Safari","26.5","OS X","10_15_7","https://uencdihehs.cognition.run/","en-US,en;q=0.9","6a163d3b64b0819643240fdb","6a270c2e609d6ae583c06396","6a270e6b003ebe52f7094fd7?","6a163d3b64b0819643240fdb","6a270c2e609d6ae583c06396","6a270e6b003ebe52f7094fd7?","30","[20,27,15,10,2,13,12,5,26,21,29,9,16,1,24,25,22,14,30,28,7,23,11,3,4,18,17,6,19,8]","[""U20"",""P27"",""P15"",""P10"",""P2"",""U13"",""P12"",""U5"",""P26"",""P21"",""P29"",""P9"",""P16"",""U1"",""P24"",""U25"",""P22"",""U14"",""U30"",""P28"",""P7"",""P23"",""U11"",""P3"",""U4"",""U18"",""U17"",""U6"",""U19"",""P8""]","[""P20"",""U27"",""U15"",""U10"",""U2"",""P13"",""U12"",""P5"",""U26"",""U21"",""U29"",""U9"",""U16"",""P1"",""U24"",""P25"",""U22"",""P14"",""P30"",""U28"",""U7"",""U23"",""P11"",""U3"",""P4"",""P18"",""P17"",""P6"",""P19"",""U8""]","5","5","0","0","0","0","","null","[""balcony_v1.mp4""]","null","segmentation_video","","","","","","","","","balcony_v1.mp4","balcony","Predictable","[1.3259402096797288,6.2942499606445805,8.499692542966246,10.757882127661393,19.55076662698779,21.491937168353292,24.731734210310805]","7","","P2","2","1","5","1.9411705413655014","false","false","false","","false","0","0","false","false","false","false",""
"","","","","","survey-multi-choice","32","2.0.0","828174","95","1","2026-06-08 19:24:25","segmentation_norming_randomized_order_maxrun_attention_v4","205.175.106.28","Mozilla/5.0 (Macintosh; Intel Mac OS X 10_15_7) AppleWebKit/605.1.15 (KHTML, like Gecko) Version/26.5 Safari/605.1.15","Macintosh","Safari","26.5","OS X","10_15_7","https://uencdihehs.cognition.run/","en-US,en;q=0.9","6a163d3b64b0819643240fdb","6a270c2e609d6ae583c06396","6a270e6b003ebe52f7094fd7?","6a163d3b64b0819643240fdb","6a270c2e609d6ae583c06396","6a270e6b003ebe52f7094fd7?","30","[20,27,15,10,2,13,12,5,26,21,29,9,16,1,24,25,22,14,30,28,7,23,11,3,4,18,17,6,19,8]","[""U20"",""P27"",""P15"",""P10"",""P2"",""U13"",""P12"",""U5"",""P26"",""P21"",""P29"",""P9"",""P16"",""U1"",""P24"",""U25"",""P22"",""U14"",""U30"",""P28"",""P7"",""P23"",""U11"",""P3"",""U4"",""U18"",""U17"",""U6"",""U19"",""P8""]","[""P20"",""U27"",""U15"",""U10"",""U2"",""P13"",""U12"",""P5"",""U26"",""U21"",""U29"",""U9"",""U16"",""P1"",""U24"",""P25"",""U22"",""P14"",""P30"",""U28"",""U7"",""U23"",""P11"",""U3"",""P4"",""P18"",""P17"",""P6"",""P19"",""U8""]","5","5","0","0","0","0","","2439","","{""confidence_rating"":""Moderately confident""}","confidence_question","[0]","","","","","","","","","balcony","Predictable","","","","P2","2","1","5","","","","","","","","","","","","","Moderately confident"
"","","","","","video-keyboard-response","33","2.0.0","857902","95","1","2026-06-08 19:24:25","segmentation_norming_randomized_order_maxrun_attention_v4","205.175.106.28","Mozilla/5.0 (Macintosh; Intel Mac OS X 10_15_7) AppleWebKit/605.1.15 (KHTML, like Gecko) Version/26.5 Safari/605.1.15","Macintosh","Safari","26.5","OS X","10_15_7","https://uencdihehs.cognition.run/","en-US,en;q=0.9","6a163d3b64b0819643240fdb","6a270c2e609d6ae583c06396","6a270e6b003ebe52f7094fd7?","6a163d3b64b0819643240fdb","6a270c2e609d6ae583c06396","6a270e6b003ebe52f7094fd7?","30","[20,27,15,10,2,13,12,5,26,21,29,9,16,1,24,25,22,14,30,28,7,23,11,3,4,18,17,6,19,8]","[""U20"",""P27"",""P15"",""P10"",""P2"",""U13"",""P12"",""U5"",""P26"",""P21"",""P29"",""P9"",""P16"",""U1"",""P24"",""U25"",""P22"",""U14"",""U30"",""P28"",""P7"",""P23"",""U11"",""P3"",""U4"",""U18"",""U17"",""U6"",""U19"",""P8""]","[""P20"",""U27"",""U15"",""U10"",""U2"",""P13"",""U12"",""P5"",""U26"",""U21"",""U29"",""U9"",""U16"",""P1"",""U24"",""P25"",""U22"",""P14"",""P30"",""U28"",""U7"",""U23"",""P11"",""U3"",""P4"",""P18"",""P17"",""P6"",""P19"",""U8""]","5","5","0","0","0","0","","null","[""gym_v2.mp4""]","null","segmentation_video","","","","","","","","","gym_v2.mp4","gym","Unpredictable","[1.5559784996814796,3.528029833643169,8.279595667358597,12.475982708661709,17.088623499998953,18.25794458300026,20.89348204132485,23.725379041981416]","8","","U13","13","1","6","1.1693210830013072","false","false","false","","false","0","0","false","false","false","false",""
"","","","","","survey-multi-choice","36","2.0.0","860809","95","1","2026-06-08 19:24:25","segmentation_norming_randomized_order_maxrun_attention_v4","205.175.106.28","Mozilla/5.0 (Macintosh; Intel Mac OS X 10_15_7) AppleWebKit/605.1.15 (KHTML, like Gecko) Version/26.5 Safari/605.1.15","Macintosh","Safari","26.5","OS X","10_15_7","https://uencdihehs.cognition.run/","en-US,en;q=0.9","6a163d3b64b0819643240fdb","6a270c2e609d6ae583c06396","6a270e6b003ebe52f7094fd7?","6a163d3b64b0819643240fdb","6a270c2e609d6ae583c06396","6a270e6b003ebe52f7094fd7?","30","[20,27,15,10,2,13,12,5,26,21,29,9,16,1,24,25,22,14,30,28,7,23,11,3,4,18,17,6,19,8]","[""U20"",""P27"",""P15"",""P10"",""P2"",""U13"",""P12"",""U5"",""P26"",""P21"",""P29"",""P9"",""P16"",""U1"",""P24"",""U25"",""P22"",""U14"",""U30"",""P28"",""P7"",""P23"",""U11"",""P3"",""U4"",""U18"",""U17"",""U6"",""U19"",""P8""]","[""P20"",""U27"",""U15"",""U10"",""U2"",""P13"",""U12"",""P5"",""U26"",""U21"",""U29"",""U9"",""U16"",""P1"",""U24"",""P25"",""U22"",""P14"",""P30"",""U28"",""U7"",""U23"",""P11"",""U3"",""P4"",""P18"",""P17"",""P6"",""P19"",""U8""]","5","5","0","0","0","0","","2904","","{""confidence_rating"":""Neutral""}","confidence_question","[0]","","","","","","","","","gym","Unpredictable","","","","U13","13","1","6","","","","","","","","","","","","","Neutral"
"","","","","","video-keyboard-response","37","2.0.0","896898","95","1","2026-06-08 19:24:25","segmentation_norming_randomized_order_maxrun_attention_v4","205.175.106.28","Mozilla/5.0 (Macintosh; Intel Mac OS X 10_15_7) AppleWebKit/605.1.15 (KHTML, like Gecko) Version/26.5 Safari/605.1.15","Macintosh","Safari","26.5","OS X","10_15_7","https://uencdihehs.cognition.run/","en-US,en;q=0.9","6a163d3b64b0819643240fdb","6a270c2e609d6ae583c06396","6a270e6b003ebe52f7094fd7?","6a163d3b64b0819643240fdb","6a270c2e609d6ae583c06396","6a270e6b003ebe52f7094fd7?","30","[20,27,15,10,2,13,12,5,26,21,29,9,16,1,24,25,22,14,30,28,7,23,11,3,4,18,17,6,19,8]","[""U20"",""P27"",""P15"",""P10"",""P2"",""U13"",""P12"",""U5"",""P26"",""P21"",""P29"",""P9"",""P16"",""U1"",""P24"",""U25"",""P22"",""U14"",""U30"",""P28"",""P7"",""P23"",""U11"",""P3"",""U4"",""U18"",""U17"",""U6"",""U19"",""P8""]","[""P20"",""U27"",""U15"",""U10"",""U2"",""P13"",""U12"",""P5"",""U26"",""U21"",""U29"",""U9"",""U16"",""P1"",""U24"",""P25"",""U22"",""P14"",""P30"",""U28"",""U7"",""U23"",""P11"",""U3"",""P4"",""P18"",""P17"",""P6"",""P19"",""U8""]","5","5","0","0","0","0","","null","[""football_v1.mp4""]","null","segmentation_video","","","","","","","","","football_v1.mp4","football","Predictable","[2.8763321266895003,5.182164001979679,9.548203086635205,20.529916293983558,22.562042085990647,29.952181294342672,31.95130266865545]","7","","P12","12","1","7","1.9991213743127787","false","false","false","","false","0","0","false","false","false","false",""
"","","","","","survey-multi-choice","40","2.0.0","899492","95","1","2026-06-08 19:24:25","segmentation_norming_randomized_order_maxrun_attention_v4","205.175.106.28","Mozilla/5.0 (Macintosh; Intel Mac OS X 10_15_7) AppleWebKit/605.1.15 (KHTML, like Gecko) Version/26.5 Safari/605.1.15","Macintosh","Safari","26.5","OS X","10_15_7","https://uencdihehs.cognition.run/","en-US,en;q=0.9","6a163d3b64b0819643240fdb","6a270c2e609d6ae583c06396","6a270e6b003ebe52f7094fd7?","6a163d3b64b0819643240fdb","6a270c2e609d6ae583c06396","6a270e6b003ebe52f7094fd7?","30","[20,27,15,10,2,13,12,5,26,21,29,9,16,1,24,25,22,14,30,28,7,23,11,3,4,18,17,6,19,8]","[""U20"",""P27"",""P15"",""P10"",""P2"",""U13"",""P12"",""U5"",""P26"",""P21"",""P29"",""P9"",""P16"",""U1"",""P24"",""U25"",""P22"",""U14"",""U30"",""P28"",""P7"",""P23"",""U11"",""P3"",""U4"",""U18"",""U17"",""U6"",""U19"",""P8""]","[""P20"",""U27"",""U15"",""U10"",""U2"",""P13"",""U12"",""P5"",""U26"",""U21"",""U29"",""U9"",""U16"",""P1"",""U24"",""P25"",""U22"",""P14"",""P30"",""U28"",""U7"",""U23"",""P11"",""U3"",""P4"",""P18"",""P17"",""P6"",""P19"",""U8""]","5","5","0","0","0","0","","2592","","{""confidence_rating"":""Neutral""}","confidence_question","[0]","","","","","","","","","football","Predictable","","","","P12","12","1","7","","","","","","","","","","","","","Neutral"
"","","","","","video-keyboard-response","41","2.0.0","926682","95","1","2026-06-08 19:24:25","segmentation_norming_randomized_order_maxrun_attention_v4","205.175.106.28","Mozilla/5.0 (Macintosh; Intel Mac OS X 10_15_7) AppleWebKit/605.1.15 (KHTML, like Gecko) Version/26.5 Safari/605.1.15","Macintosh","Safari","26.5","OS X","10_15_7","https://uencdihehs.cognition.run/","en-US,en;q=0.9","6a163d3b64b0819643240fdb","6a270c2e609d6ae583c06396","6a270e6b003ebe52f7094fd7?","6a163d3b64b0819643240fdb","6a270c2e609d6ae583c06396","6a270e6b003ebe52f7094fd7?","30","[20,27,15,10,2,13,12,5,26,21,29,9,16,1,24,25,22,14,30,28,7,23,11,3,4,18,17,6,19,8]","[""U20"",""P27"",""P15"",""P10"",""P2"",""U13"",""P12"",""U5"",""P26"",""P21"",""P29"",""P9"",""P16"",""U1"",""P24"",""U25"",""P22"",""U14"",""U30"",""P28"",""P7"",""P23"",""U11"",""P3"",""U4"",""U18"",""U17"",""U6"",""U19"",""P8""]","[""P20"",""U27"",""U15"",""U10"",""U2"",""P13"",""U12"",""P5"",""U26"",""U21"",""U29"",""U9"",""U16"",""P1"",""U24"",""P25"",""U22"",""P14"",""P30"",""U28"",""U7"",""U23"",""P11"",""U3"",""P4"",""P18"",""P17"",""P6"",""P19"",""U8""]","5","5","0","0","0","0","","null","[""beach_v2.mp4""]","null","segmentation_video","","","","","","","","","beach_v2.mp4","beach","Unpredictable","[2.3240981310232383,5.611485422684553,8.270667506667149,9.889844839665233,11.83800721466881,13.91948188028486,16.548921005967856,19.001989422343232,20.54120717199633,22.446068298333035]","10","","U5","5","1","8","1.5392177496530977","false","false","false","","false","0","0","false","false","false","false",""
"","","","","","survey-multi-choice","44","2.0.0","930342","95","1","2026-06-08 19:24:25","segmentation_norming_randomized_order_maxrun_attention_v4","205.175.106.28","Mozilla/5.0 (Macintosh; Intel Mac OS X 10_15_7) AppleWebKit/605.1.15 (KHTML, like Gecko) Version/26.5 Safari/605.1.15","Macintosh","Safari","26.5","OS X","10_15_7","https://uencdihehs.cognition.run/","en-US,en;q=0.9","6a163d3b64b0819643240fdb","6a270c2e609d6ae583c06396","6a270e6b003ebe52f7094fd7?","6a163d3b64b0819643240fdb","6a270c2e609d6ae583c06396","6a270e6b003ebe52f7094fd7?","30","[20,27,15,10,2,13,12,5,26,21,29,9,16,1,24,25,22,14,30,28,7,23,11,3,4,18,17,6,19,8]","[""U20"",""P27"",""P15"",""P10"",""P2"",""U13"",""P12"",""U5"",""P26"",""P21"",""P29"",""P9"",""P16"",""U1"",""P24"",""U25"",""P22"",""U14"",""U30"",""P28"",""P7"",""P23"",""U11"",""P3"",""U4"",""U18"",""U17"",""U6"",""U19"",""P8""]","[""P20"",""U27"",""U15"",""U10"",""U2"",""P13"",""U12"",""P5"",""U26"",""U21"",""U29"",""U9"",""U16"",""P1"",""U24"",""P25"",""U22"",""P14"",""P30"",""U28"",""U7"",""U23"",""P11"",""U3"",""P4"",""P18"",""P17"",""P6"",""P19"",""U8""]","5","5","0","0","0","0","","3652","","{""confidence_rating"":""Neutral""}","confidence_question","[0]","","","","","","","","","beach","Unpredictable","","","","U5","5","1","8","","","","","","","","","","","","","Neutral"
"","","","","","video-keyboard-response","45","2.0.0","970884","95","1","2026-06-08 19:24:25","segmentation_norming_randomized_order_maxrun_attention_v4","205.175.106.28","Mozilla/5.0 (Macintosh; Intel Mac OS X 10_15_7) AppleWebKit/605.1.15 (KHTML, like Gecko) Version/26.5 Safari/605.1.15","Macintosh","Safari","26.5","OS X","10_15_7","https://uencdihehs.cognition.run/","en-US,en;q=0.9","6a163d3b64b0819643240fdb","6a270c2e609d6ae583c06396","6a270e6b003ebe52f7094fd7?","6a163d3b64b0819643240fdb","6a270c2e609d6ae583c06396","6a270e6b003ebe52f7094fd7?","30","[20,27,15,10,2,13,12,5,26,21,29,9,16,1,24,25,22,14,30,28,7,23,11,3,4,18,17,6,19,8]","[""U20"",""P27"",""P15"",""P10"",""P2"",""U13"",""P12"",""U5"",""P26"",""P21"",""P29"",""P9"",""P16"",""U1"",""P24"",""U25"",""P22"",""U14"",""U30"",""P28"",""P7"",""P23"",""U11"",""P3"",""U4"",""U18"",""U17"",""U6"",""U19"",""P8""]","[""P20"",""U27"",""U15"",""U10"",""U2"",""P13"",""U12"",""P5"",""U26"",""U21"",""U29"",""U9"",""U16"",""P1"",""U24"",""P25"",""U22"",""P14"",""P30"",""U28"",""U7"",""U23"",""P11"",""U3"",""P4"",""P18"",""P17"",""P6"",""P19"",""U8""]","5","5","0","0","0","0","","null","[""sunbathing_v1.mp4""]","null","segmentation_video","","","","","","","","","sunbathing_v1.mp4","sunbathing","Predictable","[8.848346841293502,10.244212174380792,15.745950466690987,21.57004721634711,32.10028463202533,34.64935988194658,36.731816548652816]","7","","P26","26","1","9","1.3958653330872899","false","false","false","","false","0","0","false","false","false","false",""
"","","","","","survey-multi-choice","48","2.0.0","973827","95","1","2026-06-08 19:24:25","segmentation_norming_randomized_order_maxrun_attention_v4","205.175.106.28","Mozilla/5.0 (Macintosh; Intel Mac OS X 10_15_7) AppleWebKit/605.1.15 (KHTML, like Gecko) Version/26.5 Safari/605.1.15","Macintosh","Safari","26.5","OS X","10_15_7","https://uencdihehs.cognition.run/","en-US,en;q=0.9","6a163d3b64b0819643240fdb","6a270c2e609d6ae583c06396","6a270e6b003ebe52f7094fd7?","6a163d3b64b0819643240fdb","6a270c2e609d6ae583c06396","6a270e6b003ebe52f7094fd7?","30","[20,27,15,10,2,13,12,5,26,21,29,9,16,1,24,25,22,14,30,28,7,23,11,3,4,18,17,6,19,8]","[""U20"",""P27"",""P15"",""P10"",""P2"",""U13"",""P12"",""U5"",""P26"",""P21"",""P29"",""P9"",""P16"",""U1"",""P24"",""U25"",""P22"",""U14"",""U30"",""P28"",""P7"",""P23"",""U11"",""P3"",""U4"",""U18"",""U17"",""U6"",""U19"",""P8""]","[""P20"",""U27"",""U15"",""U10"",""U2"",""P13"",""U12"",""P5"",""U26"",""U21"",""U29"",""U9"",""U16"",""P1"",""U24"",""P25"",""U22"",""P14"",""P30"",""U28"",""U7"",""U23"",""P11"",""U3"",""P4"",""P18"",""P17"",""P6"",""P19"",""U8""]","5","5","0","0","0","0","","2939","","{""confidence_rating"":""Neutral""}","confidence_question","[0]","","","","","","","","","sunbathing","Predictable","","","","P26","26","1","9","","","","","","","","","","","","","Neutral"
"","","","","","video-keyboard-response","49","2.0.0","1018332","95","1","2026-06-08 19:24:25","segmentation_norming_randomized_order_maxrun_attention_v4","205.175.106.28","Mozilla/5.0 (Macintosh; Intel Mac OS X 10_15_7) AppleWebKit/605.1.15 (KHTML, like Gecko) Version/26.5 Safari/605.1.15","Macintosh","Safari","26.5","OS X","10_15_7","https://uencdihehs.cognition.run/","en-US,en;q=0.9","6a163d3b64b0819643240fdb","6a270c2e609d6ae583c06396","6a270e6b003ebe52f7094fd7?","6a163d3b64b0819643240fdb","6a270c2e609d6ae583c06396","6a270e6b003ebe52f7094fd7?","30","[20,27,15,10,2,13,12,5,26,21,29,9,16,1,24,25,22,14,30,28,7,23,11,3,4,18,17,6,19,8]","[""U20"",""P27"",""P15"",""P10"",""P2"",""U13"",""P12"",""U5"",""P26"",""P21"",""P29"",""P9"",""P16"",""U1"",""P24"",""U25"",""P22"",""U14"",""U30"",""P28"",""P7"",""P23"",""U11"",""P3"",""U4"",""U18"",""U17"",""U6"",""U19"",""P8""]","[""P20"",""U27"",""U15"",""U10"",""U2"",""P13"",""U12"",""P5"",""U26"",""U21"",""U29"",""U9"",""U16"",""P1"",""U24"",""P25"",""U22"",""P14"",""P30"",""U28"",""U7"",""U23"",""P11"",""U3"",""P4"",""P18"",""P17"",""P6"",""P19"",""U8""]","5","5","0","0","0","0","","null","[""printer_v1.mp4""]","null","segmentation_video","","","","","","","","","printer_v1.mp4","printer","Predictable","[4.780060170318349,8.219218962328444,14.832227046007059,19.626457003640176,21.334125254321872,23.045180004333,28.4680135866727,32.07260087935595,37.55041904531267,41.09436308700434,43.23874104599913]","11","","P21","21","1","10","1.7076682506816958","false","false","false","","false","0","0","false","false","false","false",""
"","","","","","survey-multi-choice","52","2.0.0","1021176","95","1","2026-06-08 19:24:25","segmentation_norming_randomized_order_maxrun_attention_v4","205.175.106.28","Mozilla/5.0 (Macintosh; Intel Mac OS X 10_15_7) AppleWebKit/605.1.15 (KHTML, like Gecko) Version/26.5 Safari/605.1.15","Macintosh","Safari","26.5","OS X","10_15_7","https://uencdihehs.cognition.run/","en-US,en;q=0.9","6a163d3b64b0819643240fdb","6a270c2e609d6ae583c06396","6a270e6b003ebe52f7094fd7?","6a163d3b64b0819643240fdb","6a270c2e609d6ae583c06396","6a270e6b003ebe52f7094fd7?","30","[20,27,15,10,2,13,12,5,26,21,29,9,16,1,24,25,22,14,30,28,7,23,11,3,4,18,17,6,19,8]","[""U20"",""P27"",""P15"",""P10"",""P2"",""U13"",""P12"",""U5"",""P26"",""P21"",""P29"",""P9"",""P16"",""U1"",""P24"",""U25"",""P22"",""U14"",""U30"",""P28"",""P7"",""P23"",""U11"",""P3"",""U4"",""U18"",""U17"",""U6"",""U19"",""P8""]","[""P20"",""U27"",""U15"",""U10"",""U2"",""P13"",""U12"",""P5"",""U26"",""U21"",""U29"",""U9"",""U16"",""P1"",""U24"",""P25"",""U22"",""P14"",""P30"",""U28"",""U7"",""U23"",""P11"",""U3"",""P4"",""P18"",""P17"",""P6"",""P19"",""U8""]","5","5","0","0","0","0","","2835","","{""confidence_rating"":""Neutral""}","confidence_question","[0]","","","","","","","","","printer","Predictable","","","","P21","21","1","10","","","","","","","","","","","","","Neutral"
"","","","","","video-keyboard-response","53","2.0.0","1043076","95","1","2026-06-08 19:24:25","segmentation_norming_randomized_order_maxrun_attention_v4","205.175.106.28","Mozilla/5.0 (Macintosh; Intel Mac OS X 10_15_7) AppleWebKit/605.1.15 (KHTML, like Gecko) Version/26.5 Safari/605.1.15","Macintosh","Safari","26.5","OS X","10_15_7","https://uencdihehs.cognition.run/","en-US,en;q=0.9","6a163d3b64b0819643240fdb","6a270c2e609d6ae583c06396","6a270e6b003ebe52f7094fd7?","6a163d3b64b0819643240fdb","6a270c2e609d6ae583c06396","6a270e6b003ebe52f7094fd7?","30","[20,27,15,10,2,13,12,5,26,21,29,9,16,1,24,25,22,14,30,28,7,23,11,3,4,18,17,6,19,8]","[""U20"",""P27"",""P15"",""P10"",""P2"",""U13"",""P12"",""U5"",""P26"",""P21"",""P29"",""P9"",""P16"",""U1"",""P24"",""U25"",""P22"",""U14"",""U30"",""P28"",""P7"",""P23"",""U11"",""P3"",""U4"",""U18"",""U17"",""U6"",""U19"",""P8""]","[""P20"",""U27"",""U15"",""U10"",""U2"",""P13"",""U12"",""P5"",""U26"",""U21"",""U29"",""U9"",""U16"",""P1"",""U24"",""P25"",""U22"",""P14"",""P30"",""U28"",""U7"",""U23"",""P11"",""U3"",""P4"",""P18"",""P17"",""P6"",""P19"",""U8""]","5","5","0","0","0","0","","null","[""walking_v1.mp4""]","null","segmentation_video","","","","","","","","","walking_v1.mp4","walking","Predictable","[2.751126962659642,5.1570520883798165,7.639236712647542,10.738741087698005,12.864544212981954,16.342110587956125,19.792020046361387]","7","","P29","29","1","11","2.1258031252839498","false","false","false","","false","0","0","false","false","false","false",""
"","","","","","survey-multi-choice","56","2.0.0","1046393","95","1","2026-06-08 19:24:25","segmentation_norming_randomized_order_maxrun_attention_v4","205.175.106.28","Mozilla/5.0 (Macintosh; Intel Mac OS X 10_15_7) AppleWebKit/605.1.15 (KHTML, like Gecko) Version/26.5 Safari/605.1.15","Macintosh","Safari","26.5","OS X","10_15_7","https://uencdihehs.cognition.run/","en-US,en;q=0.9","6a163d3b64b0819643240fdb","6a270c2e609d6ae583c06396","6a270e6b003ebe52f7094fd7?","6a163d3b64b0819643240fdb","6a270c2e609d6ae583c06396","6a270e6b003ebe52f7094fd7?","30","[20,27,15,10,2,13,12,5,26,21,29,9,16,1,24,25,22,14,30,28,7,23,11,3,4,18,17,6,19,8]","[""U20"",""P27"",""P15"",""P10"",""P2"",""U13"",""P12"",""U5"",""P26"",""P21"",""P29"",""P9"",""P16"",""U1"",""P24"",""U25"",""P22"",""U14"",""U30"",""P28"",""P7"",""P23"",""U11"",""P3"",""U4"",""U18"",""U17"",""U6"",""U19"",""P8""]","[""P20"",""U27"",""U15"",""U10"",""U2"",""P13"",""U12"",""P5"",""U26"",""U21"",""U29"",""U9"",""U16"",""P1"",""U24"",""P25"",""U22"",""P14"",""P30"",""U28"",""U7"",""U23"",""P11"",""U3"",""P4"",""P18"",""P17"",""P6"",""P19"",""U8""]","5","5","0","0","0","0","","3315","","{""confidence_rating"":""Moderately confident""}","confidence_question","[0]","","","","","","","","","walking","Predictable","","","","P29","29","1","11","","","","","","","","","","","","","Moderately confident"
"","","","","","video-keyboard-response","57","2.0.0","1084462","95","1","2026-06-08 19:24:25","segmentation_norming_randomized_order_maxrun_attention_v4","205.175.106.28","Mozilla/5.0 (Macintosh; Intel Mac OS X 10_15_7) AppleWebKit/605.1.15 (KHTML, like Gecko) Version/26.5 Safari/605.1.15","Macintosh","Safari","26.5","OS X","10_15_7","https://uencdihehs.cognition.run/","en-US,en;q=0.9","6a163d3b64b0819643240fdb","6a270c2e609d6ae583c06396","6a270e6b003ebe52f7094fd7?","6a163d3b64b0819643240fdb","6a270c2e609d6ae583c06396","6a270e6b003ebe52f7094fd7?","30","[20,27,15,10,2,13,12,5,26,21,29,9,16,1,24,25,22,14,30,28,7,23,11,3,4,18,17,6,19,8]","[""U20"",""P27"",""P15"",""P10"",""P2"",""U13"",""P12"",""U5"",""P26"",""P21"",""P29"",""P9"",""P16"",""U1"",""P24"",""U25"",""P22"",""U14"",""U30"",""P28"",""P7"",""P23"",""U11"",""P3"",""U4"",""U18"",""U17"",""U6"",""U19"",""P8""]","[""P20"",""U27"",""U15"",""U10"",""U2"",""P13"",""U12"",""P5"",""U26"",""U21"",""U29"",""U9"",""U16"",""P1"",""U24"",""P25"",""U22"",""P14"",""P30"",""U28"",""U7"",""U23"",""P11"",""U3"",""P4"",""P18"",""P17"",""P6"",""P19"",""U8""]","5","5","0","0","0","0","","null","[""cereal_v1.mp4""]","null","segmentation_video","","","","","","","","","cereal_v1.mp4","cereal","Predictable","[2.6602055046998303,14.287357003984395,22.271014795339262,28.33035271299435,32.13627662903996]","5","","P9","9","1","12","3.805923916045611","false","false","false","","false","0","0","false","false","false","false",""
"","","","","","survey-multi-choice","60","2.0.0","1087160","95","1","2026-06-08 19:24:25","segmentation_norming_randomized_order_maxrun_attention_v4","205.175.106.28","Mozilla/5.0 (Macintosh; Intel Mac OS X 10_15_7) AppleWebKit/605.1.15 (KHTML, like Gecko) Version/26.5 Safari/605.1.15","Macintosh","Safari","26.5","OS X","10_15_7","https://uencdihehs.cognition.run/","en-US,en;q=0.9","6a163d3b64b0819643240fdb","6a270c2e609d6ae583c06396","6a270e6b003ebe52f7094fd7?","6a163d3b64b0819643240fdb","6a270c2e609d6ae583c06396","6a270e6b003ebe52f7094fd7?","30","[20,27,15,10,2,13,12,5,26,21,29,9,16,1,24,25,22,14,30,28,7,23,11,3,4,18,17,6,19,8]","[""U20"",""P27"",""P15"",""P10"",""P2"",""U13"",""P12"",""U5"",""P26"",""P21"",""P29"",""P9"",""P16"",""U1"",""P24"",""U25"",""P22"",""U14"",""U30"",""P28"",""P7"",""P23"",""U11"",""P3"",""U4"",""U18"",""U17"",""U6"",""U19"",""P8""]","[""P20"",""U27"",""U15"",""U10"",""U2"",""P13"",""U12"",""P5"",""U26"",""U21"",""U29"",""U9"",""U16"",""P1"",""U24"",""P25"",""U22"",""P14"",""P30"",""U28"",""U7"",""U23"",""P11"",""U3"",""P4"",""P18"",""P17"",""P6"",""P19"",""U8""]","5","5","0","0","0","0","","2696","","{""confidence_rating"":""Neutral""}","confidence_question","[0]","","","","","","","","","cereal","Predictable","","","","P9","9","1","12","","","","","","","","","","","","","Neutral"
"","","","","","video-keyboard-response","61","2.0.0","1117315","95","1","2026-06-08 19:24:25","segmentation_norming_randomized_order_maxrun_attention_v4","205.175.106.28","Mozilla/5.0 (Macintosh; Intel Mac OS X 10_15_7) AppleWebKit/605.1.15 (KHTML, like Gecko) Version/26.5 Safari/605.1.15","Macintosh","Safari","26.5","OS X","10_15_7","https://uencdihehs.cognition.run/","en-US,en;q=0.9","6a163d3b64b0819643240fdb","6a270c2e609d6ae583c06396","6a270e6b003ebe52f7094fd7?","6a163d3b64b0819643240fdb","6a270c2e609d6ae583c06396","6a270e6b003ebe52f7094fd7?","30","[20,27,15,10,2,13,12,5,26,21,29,9,16,1,24,25,22,14,30,28,7,23,11,3,4,18,17,6,19,8]","[""U20"",""P27"",""P15"",""P10"",""P2"",""U13"",""P12"",""U5"",""P26"",""P21"",""P29"",""P9"",""P16"",""U1"",""P24"",""U25"",""P22"",""U14"",""U30"",""P28"",""P7"",""P23"",""U11"",""P3"",""U4"",""U18"",""U17"",""U6"",""U19"",""P8""]","[""P20"",""U27"",""U15"",""U10"",""U2"",""P13"",""U12"",""P5"",""U26"",""U21"",""U29"",""U9"",""U16"",""P1"",""U24"",""P25"",""U22"",""P14"",""P30"",""U28"",""U7"",""U23"",""P11"",""U3"",""P4"",""P18"",""P17"",""P6"",""P19"",""U8""]","5","5","0","0","0","0","","null","[""mouse_v1.mp4""]","null","segmentation_video","","","","","","","","","mouse_v1.mp4","mouse","Predictable","[2.4900346296866354,6.610564671321709,13.76923933769704,21.005261629631025,24.540786088615835,29.716]","6","","P16","16","1","13","3.53552445898481","false","false","false","","false","0","0","false","false","false","false",""
"","","","","","survey-multi-choice","64","2.0.0","1120480","95","1","2026-06-08 19:24:25","segmentation_norming_randomized_order_maxrun_attention_v4","205.175.106.28","Mozilla/5.0 (Macintosh; Intel Mac OS X 10_15_7) AppleWebKit/605.1.15 (KHTML, like Gecko) Version/26.5 Safari/605.1.15","Macintosh","Safari","26.5","OS X","10_15_7","https://uencdihehs.cognition.run/","en-US,en;q=0.9","6a163d3b64b0819643240fdb","6a270c2e609d6ae583c06396","6a270e6b003ebe52f7094fd7?","6a163d3b64b0819643240fdb","6a270c2e609d6ae583c06396","6a270e6b003ebe52f7094fd7?","30","[20,27,15,10,2,13,12,5,26,21,29,9,16,1,24,25,22,14,30,28,7,23,11,3,4,18,17,6,19,8]","[""U20"",""P27"",""P15"",""P10"",""P2"",""U13"",""P12"",""U5"",""P26"",""P21"",""P29"",""P9"",""P16"",""U1"",""P24"",""U25"",""P22"",""U14"",""U30"",""P28"",""P7"",""P23"",""U11"",""P3"",""U4"",""U18"",""U17"",""U6"",""U19"",""P8""]","[""P20"",""U27"",""U15"",""U10"",""U2"",""P13"",""U12"",""P5"",""U26"",""U21"",""U29"",""U9"",""U16"",""P1"",""U24"",""P25"",""U22"",""P14"",""P30"",""U28"",""U7"",""U23"",""P11"",""U3"",""P4"",""P18"",""P17"",""P6"",""P19"",""U8""]","5","5","0","0","0","0","","3163","","{""confidence_rating"":""Moderately confident""}","confidence_question","[0]","","","","","","","","","mouse","Predictable","","","","P16","16","1","13","","","","","","","","","","","","","Moderately confident"
"","","","","","video-keyboard-response","65","2.0.0","1149571","95","1","2026-06-08 19:24:25","segmentation_norming_randomized_order_maxrun_attention_v4","205.175.106.28","Mozilla/5.0 (Macintosh; Intel Mac OS X 10_15_7) AppleWebKit/605.1.15 (KHTML, like Gecko) Version/26.5 Safari/605.1.15","Macintosh","Safari","26.5","OS X","10_15_7","https://uencdihehs.cognition.run/","en-US,en;q=0.9","6a163d3b64b0819643240fdb","6a270c2e609d6ae583c06396","6a270e6b003ebe52f7094fd7?","6a163d3b64b0819643240fdb","6a270c2e609d6ae583c06396","6a270e6b003ebe52f7094fd7?","30","[20,27,15,10,2,13,12,5,26,21,29,9,16,1,24,25,22,14,30,28,7,23,11,3,4,18,17,6,19,8]","[""U20"",""P27"",""P15"",""P10"",""P2"",""U13"",""P12"",""U5"",""P26"",""P21"",""P29"",""P9"",""P16"",""U1"",""P24"",""U25"",""P22"",""U14"",""U30"",""P28"",""P7"",""P23"",""U11"",""P3"",""U4"",""U18"",""U17"",""U6"",""U19"",""P8""]","[""P20"",""U27"",""U15"",""U10"",""U2"",""P13"",""U12"",""P5"",""U26"",""U21"",""U29"",""U9"",""U16"",""P1"",""U24"",""P25"",""U22"",""P14"",""P30"",""U28"",""U7"",""U23"",""P11"",""U3"",""P4"",""P18"",""P17"",""P6"",""P19"",""U8""]","5","5","0","0","0","0","","null","[""baking_v2.mp4""]","null","segmentation_video","","","","","","","","","baking_v2.mp4","baking","Unpredictable","[2.5318273373170563,10.01507217167521,17.56981371234428,21.183511087979625,23.357945588305483,28.7133125]","6","","U1","1","1","14","2.1744345003258587","false","false","false","","false","0","0","false","false","false","false",""
"","","","","","survey-multi-choice","68","2.0.0","1152898","95","1","2026-06-08 19:24:25","segmentation_norming_randomized_order_maxrun_attention_v4","205.175.106.28","Mozilla/5.0 (Macintosh; Intel Mac OS X 10_15_7) AppleWebKit/605.1.15 (KHTML, like Gecko) Version/26.5 Safari/605.1.15","Macintosh","Safari","26.5","OS X","10_15_7","https://uencdihehs.cognition.run/","en-US,en;q=0.9","6a163d3b64b0819643240fdb","6a270c2e609d6ae583c06396","6a270e6b003ebe52f7094fd7?","6a163d3b64b0819643240fdb","6a270c2e609d6ae583c06396","6a270e6b003ebe52f7094fd7?","30","[20,27,15,10,2,13,12,5,26,21,29,9,16,1,24,25,22,14,30,28,7,23,11,3,4,18,17,6,19,8]","[""U20"",""P27"",""P15"",""P10"",""P2"",""U13"",""P12"",""U5"",""P26"",""P21"",""P29"",""P9"",""P16"",""U1"",""P24"",""U25"",""P22"",""U14"",""U30"",""P28"",""P7"",""P23"",""U11"",""P3"",""U4"",""U18"",""U17"",""U6"",""U19"",""P8""]","[""P20"",""U27"",""U15"",""U10"",""U2"",""P13"",""U12"",""P5"",""U26"",""U21"",""U29"",""U9"",""U16"",""P1"",""U24"",""P25"",""U22"",""P14"",""P30"",""U28"",""U7"",""U23"",""P11"",""U3"",""P4"",""P18"",""P17"",""P6"",""P19"",""U8""]","5","5","0","0","0","0","","3325","","{""confidence_rating"":""Neutral""}","confidence_question","[0]","","","","","","","","","baking","Unpredictable","","","","U1","1","1","14","","","","","","","","","","","","","Neutral"
"","","","","","video-keyboard-response","69","2.0.0","1177392","95","1","2026-06-08 19:24:25","segmentation_norming_randomized_order_maxrun_attention_v4","205.175.106.28","Mozilla/5.0 (Macintosh; Intel Mac OS X 10_15_7) AppleWebKit/605.1.15 (KHTML, like Gecko) Version/26.5 Safari/605.1.15","Macintosh","Safari","26.5","OS X","10_15_7","https://uencdihehs.cognition.run/","en-US,en;q=0.9","6a163d3b64b0819643240fdb","6a270c2e609d6ae583c06396","6a270e6b003ebe52f7094fd7?","6a163d3b64b0819643240fdb","6a270c2e609d6ae583c06396","6a270e6b003ebe52f7094fd7?","30","[20,27,15,10,2,13,12,5,26,21,29,9,16,1,24,25,22,14,30,28,7,23,11,3,4,18,17,6,19,8]","[""U20"",""P27"",""P15"",""P10"",""P2"",""U13"",""P12"",""U5"",""P26"",""P21"",""P29"",""P9"",""P16"",""U1"",""P24"",""U25"",""P22"",""U14"",""U30"",""P28"",""P7"",""P23"",""U11"",""P3"",""U4"",""U18"",""U17"",""U6"",""U19"",""P8""]","[""P20"",""U27"",""U15"",""U10"",""U2"",""P13"",""U12"",""P5"",""U26"",""U21"",""U29"",""U9"",""U16"",""P1"",""U24"",""P25"",""U22"",""P14"",""P30"",""U28"",""U7"",""U23"",""P11"",""U3"",""P4"",""P18"",""P17"",""P6"",""P19"",""U8""]","5","5","0","0","0","0","","null","[""skateboard_v1.mp4""]","null","segmentation_video","","","","","","","","","skateboard_v1.mp4","skateboard","Predictable","[6.4424315469639355,10.691562297015189,15.319534671691343,20.735569130316517,21.932904838314794]","5","","P24","24","1","15","1.1973357079982776","false","false","false","","false","0","0","false","false","false","false",""
"","","","","","survey-multi-choice","72","2.0.0","1179612","95","1","2026-06-08 19:24:25","segmentation_norming_randomized_order_maxrun_attention_v4","205.175.106.28","Mozilla/5.0 (Macintosh; Intel Mac OS X 10_15_7) AppleWebKit/605.1.15 (KHTML, like Gecko) Version/26.5 Safari/605.1.15","Macintosh","Safari","26.5","OS X","10_15_7","https://uencdihehs.cognition.run/","en-US,en;q=0.9","6a163d3b64b0819643240fdb","6a270c2e609d6ae583c06396","6a270e6b003ebe52f7094fd7?","6a163d3b64b0819643240fdb","6a270c2e609d6ae583c06396","6a270e6b003ebe52f7094fd7?","30","[20,27,15,10,2,13,12,5,26,21,29,9,16,1,24,25,22,14,30,28,7,23,11,3,4,18,17,6,19,8]","[""U20"",""P27"",""P15"",""P10"",""P2"",""U13"",""P12"",""U5"",""P26"",""P21"",""P29"",""P9"",""P16"",""U1"",""P24"",""U25"",""P22"",""U14"",""U30"",""P28"",""P7"",""P23"",""U11"",""P3"",""U4"",""U18"",""U17"",""U6"",""U19"",""P8""]","[""P20"",""U27"",""U15"",""U10"",""U2"",""P13"",""U12"",""P5"",""U26"",""U21"",""U29"",""U9"",""U16"",""P1"",""U24"",""P25"",""U22"",""P14"",""P30"",""U28"",""U7"",""U23"",""P11"",""U3"",""P4"",""P18"",""P17"",""P6"",""P19"",""U8""]","5","5","0","0","0","0","","2217","","{""confidence_rating"":""Moderately confident""}","confidence_question","[0]","","","","","","","","","skateboard","Predictable","","","","P24","24","1","15","","","","","","","","","","","","","Moderately confident"
"","","","","","video-keyboard-response","73","2.0.0","1207173","95","1","2026-06-08 19:24:25","segmentation_norming_randomized_order_maxrun_attention_v4","205.175.106.28","Mozilla/5.0 (Macintosh; Intel Mac OS X 10_15_7) AppleWebKit/605.1.15 (KHTML, like Gecko) Version/26.5 Safari/605.1.15","Macintosh","Safari","26.5","OS X","10_15_7","https://uencdihehs.cognition.run/","en-US,en;q=0.9","6a163d3b64b0819643240fdb","6a270c2e609d6ae583c06396","6a270e6b003ebe52f7094fd7?","6a163d3b64b0819643240fdb","6a270c2e609d6ae583c06396","6a270e6b003ebe52f7094fd7?","30","[20,27,15,10,2,13,12,5,26,21,29,9,16,1,24,25,22,14,30,28,7,23,11,3,4,18,17,6,19,8]","[""U20"",""P27"",""P15"",""P10"",""P2"",""U13"",""P12"",""U5"",""P26"",""P21"",""P29"",""P9"",""P16"",""U1"",""P24"",""U25"",""P22"",""U14"",""U30"",""P28"",""P7"",""P23"",""U11"",""P3"",""U4"",""U18"",""U17"",""U6"",""U19"",""P8""]","[""P20"",""U27"",""U15"",""U10"",""U2"",""P13"",""U12"",""P5"",""U26"",""U21"",""U29"",""U9"",""U16"",""P1"",""U24"",""P25"",""U22"",""P14"",""P30"",""U28"",""U7"",""U23"",""P11"",""U3"",""P4"",""P18"",""P17"",""P6"",""P19"",""U8""]","5","5","0","0","0","0","","null","[""suitcase_v2.mp4""]","null","segmentation_video","","","","","","","","","suitcase_v2.mp4","suitcase","Unpredictable","[1.6482525456275114,2.5465957536695103,4.780653130370496,7.762012838349698,8.941231879709587,13.20608917136493,17.823234421330376,19.532421254986875,22.165247379363482,26.621691921001904]","10","","U25","25","1","16","0.8983432080419989","false","false","false","","false","0","0","false","false","false","false",""
"","","","","","survey-multi-choice","76","2.0.0","1209778","95","1","2026-06-08 19:24:25","segmentation_norming_randomized_order_maxrun_attention_v4","205.175.106.28","Mozilla/5.0 (Macintosh; Intel Mac OS X 10_15_7) AppleWebKit/605.1.15 (KHTML, like Gecko) Version/26.5 Safari/605.1.15","Macintosh","Safari","26.5","OS X","10_15_7","https://uencdihehs.cognition.run/","en-US,en;q=0.9","6a163d3b64b0819643240fdb","6a270c2e609d6ae583c06396","6a270e6b003ebe52f7094fd7?","6a163d3b64b0819643240fdb","6a270c2e609d6ae583c06396","6a270e6b003ebe52f7094fd7?","30","[20,27,15,10,2,13,12,5,26,21,29,9,16,1,24,25,22,14,30,28,7,23,11,3,4,18,17,6,19,8]","[""U20"",""P27"",""P15"",""P10"",""P2"",""U13"",""P12"",""U5"",""P26"",""P21"",""P29"",""P9"",""P16"",""U1"",""P24"",""U25"",""P22"",""U14"",""U30"",""P28"",""P7"",""P23"",""U11"",""P3"",""U4"",""U18"",""U17"",""U6"",""U19"",""P8""]","[""P20"",""U27"",""U15"",""U10"",""U2"",""P13"",""U12"",""P5"",""U26"",""U21"",""U29"",""U9"",""U16"",""P1"",""U24"",""P25"",""U22"",""P14"",""P30"",""U28"",""U7"",""U23"",""P11"",""U3"",""P4"",""P18"",""P17"",""P6"",""P19"",""U8""]","5","5","0","0","0","0","","2603","","{""confidence_rating"":""Neutral""}","confidence_question","[0]","","","","","","","","","suitcase","Unpredictable","","","","U25","25","1","16","","","","","","","","","","","","","Neutral"
"","","","","","video-keyboard-response","77","2.0.0","1229276","95","1","2026-06-08 19:24:25","segmentation_norming_randomized_order_maxrun_attention_v4","205.175.106.28","Mozilla/5.0 (Macintosh; Intel Mac OS X 10_15_7) AppleWebKit/605.1.15 (KHTML, like Gecko) Version/26.5 Safari/605.1.15","Macintosh","Safari","26.5","OS X","10_15_7","https://uencdihehs.cognition.run/","en-US,en;q=0.9","6a163d3b64b0819643240fdb","6a270c2e609d6ae583c06396","6a270e6b003ebe52f7094fd7?","6a163d3b64b0819643240fdb","6a270c2e609d6ae583c06396","6a270e6b003ebe52f7094fd7?","30","[20,27,15,10,2,13,12,5,26,21,29,9,16,1,24,25,22,14,30,28,7,23,11,3,4,18,17,6,19,8]","[""U20"",""P27"",""P15"",""P10"",""P2"",""U13"",""P12"",""U5"",""P26"",""P21"",""P29"",""P9"",""P16"",""U1"",""P24"",""U25"",""P22"",""U14"",""U30"",""P28"",""P7"",""P23"",""U11"",""P3"",""U4"",""U18"",""U17"",""U6"",""U19"",""P8""]","[""P20"",""U27"",""U15"",""U10"",""U2"",""P13"",""U12"",""P5"",""U26"",""U21"",""U29"",""U9"",""U16"",""P1"",""U24"",""P25"",""U22"",""P14"",""P30"",""U28"",""U7"",""U23"",""P11"",""U3"",""P4"",""P18"",""P17"",""P6"",""P19"",""U8""]","5","5","0","0","0","0","","null","[""record_v1.mp4""]","null","segmentation_video","","","","","","","","","record_v1.mp4","record","Predictable","[5.91025591932837,10.541091627708722,17.148723710978167]","3","","P22","22","1","17","4.630835708380352","false","false","false","","false","0","0","false","false","false","false",""
"","","","","","survey-multi-choice","80","2.0.0","1231413","95","1","2026-06-08 19:24:25","segmentation_norming_randomized_order_maxrun_attention_v4","205.175.106.28","Mozilla/5.0 (Macintosh; Intel Mac OS X 10_15_7) AppleWebKit/605.1.15 (KHTML, like Gecko) Version/26.5 Safari/605.1.15","Macintosh","Safari","26.5","OS X","10_15_7","https://uencdihehs.cognition.run/","en-US,en;q=0.9","6a163d3b64b0819643240fdb","6a270c2e609d6ae583c06396","6a270e6b003ebe52f7094fd7?","6a163d3b64b0819643240fdb","6a270c2e609d6ae583c06396","6a270e6b003ebe52f7094fd7?","30","[20,27,15,10,2,13,12,5,26,21,29,9,16,1,24,25,22,14,30,28,7,23,11,3,4,18,17,6,19,8]","[""U20"",""P27"",""P15"",""P10"",""P2"",""U13"",""P12"",""U5"",""P26"",""P21"",""P29"",""P9"",""P16"",""U1"",""P24"",""U25"",""P22"",""U14"",""U30"",""P28"",""P7"",""P23"",""U11"",""P3"",""U4"",""U18"",""U17"",""U6"",""U19"",""P8""]","[""P20"",""U27"",""U15"",""U10"",""U2"",""P13"",""U12"",""P5"",""U26"",""U21"",""U29"",""U9"",""U16"",""P1"",""U24"",""P25"",""U22"",""P14"",""P30"",""U28"",""U7"",""U23"",""P11"",""U3"",""P4"",""P18"",""P17"",""P6"",""P19"",""U8""]","5","5","0","0","0","0","","2134","","{""confidence_rating"":""Moderately confident""}","confidence_question","[0]","","","","","","","","","record","Predictable","","","","P22","22","1","17","","","","","","","","","","","","","Moderately confident"
"","","","","","video-keyboard-response","81","2.0.0","1261362","95","1","2026-06-08 19:24:25","segmentation_norming_randomized_order_maxrun_attention_v4","205.175.106.28","Mozilla/5.0 (Macintosh; Intel Mac OS X 10_15_7) AppleWebKit/605.1.15 (KHTML, like Gecko) Version/26.5 Safari/605.1.15","Macintosh","Safari","26.5","OS X","10_15_7","https://uencdihehs.cognition.run/","en-US,en;q=0.9","6a163d3b64b0819643240fdb","6a270c2e609d6ae583c06396","6a270e6b003ebe52f7094fd7?","6a163d3b64b0819643240fdb","6a270c2e609d6ae583c06396","6a270e6b003ebe52f7094fd7?","30","[20,27,15,10,2,13,12,5,26,21,29,9,16,1,24,25,22,14,30,28,7,23,11,3,4,18,17,6,19,8]","[""U20"",""P27"",""P15"",""P10"",""P2"",""U13"",""P12"",""U5"",""P26"",""P21"",""P29"",""P9"",""P16"",""U1"",""P24"",""U25"",""P22"",""U14"",""U30"",""P28"",""P7"",""P23"",""U11"",""P3"",""U4"",""U18"",""U17"",""U6"",""U19"",""P8""]","[""P20"",""U27"",""U15"",""U10"",""U2"",""P13"",""U12"",""P5"",""U26"",""U21"",""U29"",""U9"",""U16"",""P1"",""U24"",""P25"",""U22"",""P14"",""P30"",""U28"",""U7"",""U23"",""P11"",""U3"",""P4"",""P18"",""P17"",""P6"",""P19"",""U8""]","5","5","0","0","0","0","","null","[""lamp_v2.mp4""]","null","segmentation_video","","","","","","","","","lamp_v2.mp4","lamp","Unpredictable","[3.6215438813334213,6.297291548366487,11.55101946496869,15.008782549011485,22.48354238166049,27.476220756964683]","6","","U14","14","1","18","2.6757476670330655","false","false","false","","false","0","0","false","false","false","false",""
"","","","","","survey-multi-choice","84","2.0.0","1263862","95","1","2026-06-08 19:24:25","segmentation_norming_randomized_order_maxrun_attention_v4","205.175.106.28","Mozilla/5.0 (Macintosh; Intel Mac OS X 10_15_7) AppleWebKit/605.1.15 (KHTML, like Gecko) Version/26.5 Safari/605.1.15","Macintosh","Safari","26.5","OS X","10_15_7","https://uencdihehs.cognition.run/","en-US,en;q=0.9","6a163d3b64b0819643240fdb","6a270c2e609d6ae583c06396","6a270e6b003ebe52f7094fd7?","6a163d3b64b0819643240fdb","6a270c2e609d6ae583c06396","6a270e6b003ebe52f7094fd7?","30","[20,27,15,10,2,13,12,5,26,21,29,9,16,1,24,25,22,14,30,28,7,23,11,3,4,18,17,6,19,8]","[""U20"",""P27"",""P15"",""P10"",""P2"",""U13"",""P12"",""U5"",""P26"",""P21"",""P29"",""P9"",""P16"",""U1"",""P24"",""U25"",""P22"",""U14"",""U30"",""P28"",""P7"",""P23"",""U11"",""P3"",""U4"",""U18"",""U17"",""U6"",""U19"",""P8""]","[""P20"",""U27"",""U15"",""U10"",""U2"",""P13"",""U12"",""P5"",""U26"",""U21"",""U29"",""U9"",""U16"",""P1"",""U24"",""P25"",""U22"",""P14"",""P30"",""U28"",""U7"",""U23"",""P11"",""U3"",""P4"",""P18"",""P17"",""P6"",""P19"",""U8""]","5","5","0","0","0","0","","2497","","{""confidence_rating"":""Moderately confident""}","confidence_question","[0]","","","","","","","","","lamp","Unpredictable","","","","U14","14","1","18","","","","","","","","","","","","","Moderately confident"
"","","","","","video-keyboard-response","85","2.0.0","1300769","95","1","2026-06-08 19:24:25","segmentation_norming_randomized_order_maxrun_attention_v4","205.175.106.28","Mozilla/5.0 (Macintosh; Intel Mac OS X 10_15_7) AppleWebKit/605.1.15 (KHTML, like Gecko) Version/26.5 Safari/605.1.15","Macintosh","Safari","26.5","OS X","10_15_7","https://uencdihehs.cognition.run/","en-US,en;q=0.9","6a163d3b64b0819643240fdb","6a270c2e609d6ae583c06396","6a270e6b003ebe52f7094fd7?","6a163d3b64b0819643240fdb","6a270c2e609d6ae583c06396","6a270e6b003ebe52f7094fd7?","30","[20,27,15,10,2,13,12,5,26,21,29,9,16,1,24,25,22,14,30,28,7,23,11,3,4,18,17,6,19,8]","[""U20"",""P27"",""P15"",""P10"",""P2"",""U13"",""P12"",""U5"",""P26"",""P21"",""P29"",""P9"",""P16"",""U1"",""P24"",""U25"",""P22"",""U14"",""U30"",""P28"",""P7"",""P23"",""U11"",""P3"",""U4"",""U18"",""U17"",""U6"",""U19"",""P8""]","[""P20"",""U27"",""U15"",""U10"",""U2"",""P13"",""U12"",""P5"",""U26"",""U21"",""U29"",""U9"",""U16"",""P1"",""U24"",""P25"",""U22"",""P14"",""P30"",""U28"",""U7"",""U23"",""P11"",""U3"",""P4"",""P18"",""P17"",""P6"",""P19"",""U8""]","5","5","0","0","0","0","","null","[""whiteboard_v2.mp4""]","null","segmentation_video","","","","","","","","","whiteboard_v2.mp4","whiteboard","Unpredictable","[5.770402130649286,9.13544983801046,13.646622005020653,17.88523287965217,23.157729005657124,26.09117762930073,31.379236338299357]","7","","U30","30","1","19","2.9334486236436064","false","false","false","","false","0","0","false","false","false","false",""
"","","","","","survey-multi-choice","88","2.0.0","1304279","95","1","2026-06-08 19:24:25","segmentation_norming_randomized_order_maxrun_attention_v4","205.175.106.28","Mozilla/5.0 (Macintosh; Intel Mac OS X 10_15_7) AppleWebKit/605.1.15 (KHTML, like Gecko) Version/26.5 Safari/605.1.15","Macintosh","Safari","26.5","OS X","10_15_7","https://uencdihehs.cognition.run/","en-US,en;q=0.9","6a163d3b64b0819643240fdb","6a270c2e609d6ae583c06396","6a270e6b003ebe52f7094fd7?","6a163d3b64b0819643240fdb","6a270c2e609d6ae583c06396","6a270e6b003ebe52f7094fd7?","30","[20,27,15,10,2,13,12,5,26,21,29,9,16,1,24,25,22,14,30,28,7,23,11,3,4,18,17,6,19,8]","[""U20"",""P27"",""P15"",""P10"",""P2"",""U13"",""P12"",""U5"",""P26"",""P21"",""P29"",""P9"",""P16"",""U1"",""P24"",""U25"",""P22"",""U14"",""U30"",""P28"",""P7"",""P23"",""U11"",""P3"",""U4"",""U18"",""U17"",""U6"",""U19"",""P8""]","[""P20"",""U27"",""U15"",""U10"",""U2"",""P13"",""U12"",""P5"",""U26"",""U21"",""U29"",""U9"",""U16"",""P1"",""U24"",""P25"",""U22"",""P14"",""P30"",""U28"",""U7"",""U23"",""P11"",""U3"",""P4"",""P18"",""P17"",""P6"",""P19"",""U8""]","5","5","0","0","0","0","","3508","","{""confidence_rating"":""Neutral""}","confidence_question","[0]","","","","","","","","","whiteboard","Unpredictable","","","","U30","30","1","19","","","","","","","","","","","","","Neutral"
"","","","","","video-keyboard-response","89","2.0.0","1334407","95","1","2026-06-08 19:24:25","segmentation_norming_randomized_order_maxrun_attention_v4","205.175.106.28","Mozilla/5.0 (Macintosh; Intel Mac OS X 10_15_7) AppleWebKit/605.1.15 (KHTML, like Gecko) Version/26.5 Safari/605.1.15","Macintosh","Safari","26.5","OS X","10_15_7","https://uencdihehs.cognition.run/","en-US,en;q=0.9","6a163d3b64b0819643240fdb","6a270c2e609d6ae583c06396","6a270e6b003ebe52f7094fd7?","6a163d3b64b0819643240fdb","6a270c2e609d6ae583c06396","6a270e6b003ebe52f7094fd7?","30","[20,27,15,10,2,13,12,5,26,21,29,9,16,1,24,25,22,14,30,28,7,23,11,3,4,18,17,6,19,8]","[""U20"",""P27"",""P15"",""P10"",""P2"",""U13"",""P12"",""U5"",""P26"",""P21"",""P29"",""P9"",""P16"",""U1"",""P24"",""U25"",""P22"",""U14"",""U30"",""P28"",""P7"",""P23"",""U11"",""P3"",""U4"",""U18"",""U17"",""U6"",""U19"",""P8""]","[""P20"",""U27"",""U15"",""U10"",""U2"",""P13"",""U12"",""P5"",""U26"",""U21"",""U29"",""U9"",""U16"",""P1"",""U24"",""P25"",""U22"",""P14"",""P30"",""U28"",""U7"",""U23"",""P11"",""U3"",""P4"",""P18"",""P17"",""P6"",""P19"",""U8""]","5","5","0","0","0","0","","null","[""tennis_v1.mp4""]","null","segmentation_video","","","","","","","","","tennis_v1.mp4","tennis","Predictable","[1.6687041706309795,2.8439291713792203,4.080682546043482,10.109823212343823,15.70687658764626,21.231244712015542,24.19007621201467]","7","","P28","28","1","20","1.1752250007482408","false","false","false","","false","0","0","false","false","false","false",""
"","","","","","survey-multi-choice","92","2.0.0","1339646","95","1","2026-06-08 19:24:25","segmentation_norming_randomized_order_maxrun_attention_v4","205.175.106.28","Mozilla/5.0 (Macintosh; Intel Mac OS X 10_15_7) AppleWebKit/605.1.15 (KHTML, like Gecko) Version/26.5 Safari/605.1.15","Macintosh","Safari","26.5","OS X","10_15_7","https://uencdihehs.cognition.run/","en-US,en;q=0.9","6a163d3b64b0819643240fdb","6a270c2e609d6ae583c06396","6a270e6b003ebe52f7094fd7?","6a163d3b64b0819643240fdb","6a270c2e609d6ae583c06396","6a270e6b003ebe52f7094fd7?","30","[20,27,15,10,2,13,12,5,26,21,29,9,16,1,24,25,22,14,30,28,7,23,11,3,4,18,17,6,19,8]","[""U20"",""P27"",""P15"",""P10"",""P2"",""U13"",""P12"",""U5"",""P26"",""P21"",""P29"",""P9"",""P16"",""U1"",""P24"",""U25"",""P22"",""U14"",""U30"",""P28"",""P7"",""P23"",""U11"",""P3"",""U4"",""U18"",""U17"",""U6"",""U19"",""P8""]","[""P20"",""U27"",""U15"",""U10"",""U2"",""P13"",""U12"",""P5"",""U26"",""U21"",""U29"",""U9"",""U16"",""P1"",""U24"",""P25"",""U22"",""P14"",""P30"",""U28"",""U7"",""U23"",""P11"",""U3"",""P4"",""P18"",""P17"",""P6"",""P19"",""U8""]","5","5","0","0","0","0","","5234","","{""confidence_rating"":""Moderately confident""}","confidence_question","[0]","","","","","","","","","tennis","Predictable","","","","P28","28","1","20","","","","","","","","","","","","","Moderately confident"
"","","","","","video-keyboard-response","93","2.0.0","1369399","95","1","2026-06-08 19:24:25","segmentation_norming_randomized_order_maxrun_attention_v4","205.175.106.28","Mozilla/5.0 (Macintosh; Intel Mac OS X 10_15_7) AppleWebKit/605.1.15 (KHTML, like Gecko) Version/26.5 Safari/605.1.15","Macintosh","Safari","26.5","OS X","10_15_7","https://uencdihehs.cognition.run/","en-US,en;q=0.9","6a163d3b64b0819643240fdb","6a270c2e609d6ae583c06396","6a270e6b003ebe52f7094fd7?","6a163d3b64b0819643240fdb","6a270c2e609d6ae583c06396","6a270e6b003ebe52f7094fd7?","30","[20,27,15,10,2,13,12,5,26,21,29,9,16,1,24,25,22,14,30,28,7,23,11,3,4,18,17,6,19,8]","[""U20"",""P27"",""P15"",""P10"",""P2"",""U13"",""P12"",""U5"",""P26"",""P21"",""P29"",""P9"",""P16"",""U1"",""P24"",""U25"",""P22"",""U14"",""U30"",""P28"",""P7"",""P23"",""U11"",""P3"",""U4"",""U18"",""U17"",""U6"",""U19"",""P8""]","[""P20"",""U27"",""U15"",""U10"",""U2"",""P13"",""U12"",""P5"",""U26"",""U21"",""U29"",""U9"",""U16"",""P1"",""U24"",""P25"",""U22"",""P14"",""P30"",""U28"",""U7"",""U23"",""P11"",""U3"",""P4"",""P18"",""P17"",""P6"",""P19"",""U8""]","5","5","0","0","0","0","","null","[""bike_v1.mp4""]","null","segmentation_video","","","","","","","","","bike_v1.mp4","bike","Predictable","[5.901780962660562,12.00777271228955,16.365058587998412,22.36532483770479,27.12106262968052,28.60387358770164]","6","","P7","7","1","21","1.482810958021119","false","false","false","","false","0","0","false","false","false","false",""
"","","","","","survey-multi-choice","96","2.0.0","1371613","95","1","2026-06-08 19:24:25","segmentation_norming_randomized_order_maxrun_attention_v4","205.175.106.28","Mozilla/5.0 (Macintosh; Intel Mac OS X 10_15_7) AppleWebKit/605.1.15 (KHTML, like Gecko) Version/26.5 Safari/605.1.15","Macintosh","Safari","26.5","OS X","10_15_7","https://uencdihehs.cognition.run/","en-US,en;q=0.9","6a163d3b64b0819643240fdb","6a270c2e609d6ae583c06396","6a270e6b003ebe52f7094fd7?","6a163d3b64b0819643240fdb","6a270c2e609d6ae583c06396","6a270e6b003ebe52f7094fd7?","30","[20,27,15,10,2,13,12,5,26,21,29,9,16,1,24,25,22,14,30,28,7,23,11,3,4,18,17,6,19,8]","[""U20"",""P27"",""P15"",""P10"",""P2"",""U13"",""P12"",""U5"",""P26"",""P21"",""P29"",""P9"",""P16"",""U1"",""P24"",""U25"",""P22"",""U14"",""U30"",""P28"",""P7"",""P23"",""U11"",""P3"",""U4"",""U18"",""U17"",""U6"",""U19"",""P8""]","[""P20"",""U27"",""U15"",""U10"",""U2"",""P13"",""U12"",""P5"",""U26"",""U21"",""U29"",""U9"",""U16"",""P1"",""U24"",""P25"",""U22"",""P14"",""P30"",""U28"",""U7"",""U23"",""P11"",""U3"",""P4"",""P18"",""P17"",""P6"",""P19"",""U8""]","5","5","0","0","0","0","","2211","","{""confidence_rating"":""Moderately confident""}","confidence_question","[0]","","","","","","","","","bike","Predictable","","","","P7","7","1","21","","","","","","","","","","","","","Moderately confident"
"","","","","","video-keyboard-response","97","2.0.0","1383814","95","1","2026-06-08 19:24:25","segmentation_norming_randomized_order_maxrun_attention_v4","205.175.106.28","Mozilla/5.0 (Macintosh; Intel Mac OS X 10_15_7) AppleWebKit/605.1.15 (KHTML, like Gecko) Version/26.5 Safari/605.1.15","Macintosh","Safari","26.5","OS X","10_15_7","https://uencdihehs.cognition.run/","en-US,en;q=0.9","6a163d3b64b0819643240fdb","6a270c2e609d6ae583c06396","6a270e6b003ebe52f7094fd7?","6a163d3b64b0819643240fdb","6a270c2e609d6ae583c06396","6a270e6b003ebe52f7094fd7?","30","[20,27,15,10,2,13,12,5,26,21,29,9,16,1,24,25,22,14,30,28,7,23,11,3,4,18,17,6,19,8]","[""U20"",""P27"",""P15"",""P10"",""P2"",""U13"",""P12"",""U5"",""P26"",""P21"",""P29"",""P9"",""P16"",""U1"",""P24"",""U25"",""P22"",""U14"",""U30"",""P28"",""P7"",""P23"",""U11"",""P3"",""U4"",""U18"",""U17"",""U6"",""U19"",""P8""]","[""P20"",""U27"",""U15"",""U10"",""U2"",""P13"",""U12"",""P5"",""U26"",""U21"",""U29"",""U9"",""U16"",""P1"",""U24"",""P25"",""U22"",""P14"",""P30"",""U28"",""U7"",""U23"",""P11"",""U3"",""P4"",""P18"",""P17"",""P6"",""P19"",""U8""]","5","5","0","0","0","0","","null","[""shopping_v1.mp4""]","null","segmentation_video","","","","","","","","","shopping_v1.mp4","shopping","Predictable","[1.2388826269986737,2.5621818773270215,3.7561834190104086,6.967319376344042,10.130014585361842]","5","","P23","23","1","22","1.1940015416833871","false","false","false","","false","0","0","false","false","false","false",""
"","","","","","survey-multi-choice","100","2.0.0","1385864","95","1","2026-06-08 19:24:25","segmentation_norming_randomized_order_maxrun_attention_v4","205.175.106.28","Mozilla/5.0 (Macintosh; Intel Mac OS X 10_15_7) AppleWebKit/605.1.15 (KHTML, like Gecko) Version/26.5 Safari/605.1.15","Macintosh","Safari","26.5","OS X","10_15_7","https://uencdihehs.cognition.run/","en-US,en;q=0.9","6a163d3b64b0819643240fdb","6a270c2e609d6ae583c06396","6a270e6b003ebe52f7094fd7?","6a163d3b64b0819643240fdb","6a270c2e609d6ae583c06396","6a270e6b003ebe52f7094fd7?","30","[20,27,15,10,2,13,12,5,26,21,29,9,16,1,24,25,22,14,30,28,7,23,11,3,4,18,17,6,19,8]","[""U20"",""P27"",""P15"",""P10"",""P2"",""U13"",""P12"",""U5"",""P26"",""P21"",""P29"",""P9"",""P16"",""U1"",""P24"",""U25"",""P22"",""U14"",""U30"",""P28"",""P7"",""P23"",""U11"",""P3"",""U4"",""U18"",""U17"",""U6"",""U19"",""P8""]","[""P20"",""U27"",""U15"",""U10"",""U2"",""P13"",""U12"",""P5"",""U26"",""U21"",""U29"",""U9"",""U16"",""P1"",""U24"",""P25"",""U22"",""P14"",""P30"",""U28"",""U7"",""U23"",""P11"",""U3"",""P4"",""P18"",""P17"",""P6"",""P19"",""U8""]","5","5","0","0","0","0","","2047","","{""confidence_rating"":""Moderately confident""}","confidence_question","[0]","","","","","","","","","shopping","Predictable","","","","P23","23","1","22","","","","","","","","","","","","","Moderately confident"
"","","","","","video-keyboard-response","101","2.0.0","1417269","95","1","2026-06-08 19:24:25","segmentation_norming_randomized_order_maxrun_attention_v4","205.175.106.28","Mozilla/5.0 (Macintosh; Intel Mac OS X 10_15_7) AppleWebKit/605.1.15 (KHTML, like Gecko) Version/26.5 Safari/605.1.15","Macintosh","Safari","26.5","OS X","10_15_7","https://uencdihehs.cognition.run/","en-US,en;q=0.9","6a163d3b64b0819643240fdb","6a270c2e609d6ae583c06396","6a270e6b003ebe52f7094fd7?","6a163d3b64b0819643240fdb","6a270c2e609d6ae583c06396","6a270e6b003ebe52f7094fd7?","30","[20,27,15,10,2,13,12,5,26,21,29,9,16,1,24,25,22,14,30,28,7,23,11,3,4,18,17,6,19,8]","[""U20"",""P27"",""P15"",""P10"",""P2"",""U13"",""P12"",""U5"",""P26"",""P21"",""P29"",""P9"",""P16"",""U1"",""P24"",""U25"",""P22"",""U14"",""U30"",""P28"",""P7"",""P23"",""U11"",""P3"",""U4"",""U18"",""U17"",""U6"",""U19"",""P8""]","[""P20"",""U27"",""U15"",""U10"",""U2"",""P13"",""U12"",""P5"",""U26"",""U21"",""U29"",""U9"",""U16"",""P1"",""U24"",""P25"",""U22"",""P14"",""P30"",""U28"",""U7"",""U23"",""P11"",""U3"",""P4"",""P18"",""P17"",""P6"",""P19"",""U8""]","5","5","0","0","0","0","","null","[""fireplace_v2.mp4""]","null","segmentation_video","","","","","","","","","fireplace_v2.mp4","fireplace","Unpredictable","[2.259716632347488,4.151688424326753,6.473450507702978,11.019704549625425,11.83467163198188,12.85156659067752,18.454096257681616,24.2808872156906,30.90770292498527]","9","","U11","11","1","23","0.8149670823564552","false","false","false","","false","0","0","false","false","false","false",""
"","","","","","survey-multi-choice","104","2.0.0","1420165","95","1","2026-06-08 19:24:25","segmentation_norming_randomized_order_maxrun_attention_v4","205.175.106.28","Mozilla/5.0 (Macintosh; Intel Mac OS X 10_15_7) AppleWebKit/605.1.15 (KHTML, like Gecko) Version/26.5 Safari/605.1.15","Macintosh","Safari","26.5","OS X","10_15_7","https://uencdihehs.cognition.run/","en-US,en;q=0.9","6a163d3b64b0819643240fdb","6a270c2e609d6ae583c06396","6a270e6b003ebe52f7094fd7?","6a163d3b64b0819643240fdb","6a270c2e609d6ae583c06396","6a270e6b003ebe52f7094fd7?","30","[20,27,15,10,2,13,12,5,26,21,29,9,16,1,24,25,22,14,30,28,7,23,11,3,4,18,17,6,19,8]","[""U20"",""P27"",""P15"",""P10"",""P2"",""U13"",""P12"",""U5"",""P26"",""P21"",""P29"",""P9"",""P16"",""U1"",""P24"",""U25"",""P22"",""U14"",""U30"",""P28"",""P7"",""P23"",""U11"",""P3"",""U4"",""U18"",""U17"",""U6"",""U19"",""P8""]","[""P20"",""U27"",""U15"",""U10"",""U2"",""P13"",""U12"",""P5"",""U26"",""U21"",""U29"",""U9"",""U16"",""P1"",""U24"",""P25"",""U22"",""P14"",""P30"",""U28"",""U7"",""U23"",""P11"",""U3"",""P4"",""P18"",""P17"",""P6"",""P19"",""U8""]","5","5","0","0","0","0","","2893","","{""confidence_rating"":""Neutral""}","confidence_question","[0]","","","","","","","","","fireplace","Unpredictable","","","","U11","11","1","23","","","","","","","","","","","","","Neutral"
"","","","","","video-keyboard-response","105","2.0.0","1439622","95","1","2026-06-08 19:24:25","segmentation_norming_randomized_order_maxrun_attention_v4","205.175.106.28","Mozilla/5.0 (Macintosh; Intel Mac OS X 10_15_7) AppleWebKit/605.1.15 (KHTML, like Gecko) Version/26.5 Safari/605.1.15","Macintosh","Safari","26.5","OS X","10_15_7","https://uencdihehs.cognition.run/","en-US,en;q=0.9","6a163d3b64b0819643240fdb","6a270c2e609d6ae583c06396","6a270e6b003ebe52f7094fd7?","6a163d3b64b0819643240fdb","6a270c2e609d6ae583c06396","6a270e6b003ebe52f7094fd7?","30","[20,27,15,10,2,13,12,5,26,21,29,9,16,1,24,25,22,14,30,28,7,23,11,3,4,18,17,6,19,8]","[""U20"",""P27"",""P15"",""P10"",""P2"",""U13"",""P12"",""U5"",""P26"",""P21"",""P29"",""P9"",""P16"",""U1"",""P24"",""U25"",""P22"",""U14"",""U30"",""P28"",""P7"",""P23"",""U11"",""P3"",""U4"",""U18"",""U17"",""U6"",""U19"",""P8""]","[""P20"",""U27"",""U15"",""U10"",""U2"",""P13"",""U12"",""P5"",""U26"",""U21"",""U29"",""U9"",""U16"",""P1"",""U24"",""P25"",""U22"",""P14"",""P30"",""U28"",""U7"",""U23"",""P11"",""U3"",""P4"",""P18"",""P17"",""P6"",""P19"",""U8""]","5","5","0","0","0","0","","null","[""bank_v1.mp4""]","null","segmentation_video","","","","","","","","","bank_v1.mp4","bank","Predictable","[4.773199173357476,7.183482798339453,10.196619382044917,16.750036007341887,18.17081963135041]","5","","P3","3","1","24","1.4207836240085214","false","false","false","","false","0","0","false","false","false","false",""
"","","","","","survey-multi-choice","108","2.0.0","1447567","95","1","2026-06-08 19:24:25","segmentation_norming_randomized_order_maxrun_attention_v4","205.175.106.28","Mozilla/5.0 (Macintosh; Intel Mac OS X 10_15_7) AppleWebKit/605.1.15 (KHTML, like Gecko) Version/26.5 Safari/605.1.15","Macintosh","Safari","26.5","OS X","10_15_7","https://uencdihehs.cognition.run/","en-US,en;q=0.9","6a163d3b64b0819643240fdb","6a270c2e609d6ae583c06396","6a270e6b003ebe52f7094fd7?","6a163d3b64b0819643240fdb","6a270c2e609d6ae583c06396","6a270e6b003ebe52f7094fd7?","30","[20,27,15,10,2,13,12,5,26,21,29,9,16,1,24,25,22,14,30,28,7,23,11,3,4,18,17,6,19,8]","[""U20"",""P27"",""P15"",""P10"",""P2"",""U13"",""P12"",""U5"",""P26"",""P21"",""P29"",""P9"",""P16"",""U1"",""P24"",""U25"",""P22"",""U14"",""U30"",""P28"",""P7"",""P23"",""U11"",""P3"",""U4"",""U18"",""U17"",""U6"",""U19"",""P8""]","[""P20"",""U27"",""U15"",""U10"",""U2"",""P13"",""U12"",""P5"",""U26"",""U21"",""U29"",""U9"",""U16"",""P1"",""U24"",""P25"",""U22"",""P14"",""P30"",""U28"",""U7"",""U23"",""P11"",""U3"",""P4"",""P18"",""P17"",""P6"",""P19"",""U8""]","5","5","0","0","0","0","","7943","","{""confidence_rating"":""Moderately confident""}","confidence_question","[0]","","","","","","","","","bank","Predictable","","","","P3","3","1","24","","","","","","","","","","","","","Moderately confident"
"","","","","","video-keyboard-response","109","2.0.0","1483158","95","1","2026-06-08 19:24:25","segmentation_norming_randomized_order_maxrun_attention_v4","205.175.106.28","Mozilla/5.0 (Macintosh; Intel Mac OS X 10_15_7) AppleWebKit/605.1.15 (KHTML, like Gecko) Version/26.5 Safari/605.1.15","Macintosh","Safari","26.5","OS X","10_15_7","https://uencdihehs.cognition.run/","en-US,en;q=0.9","6a163d3b64b0819643240fdb","6a270c2e609d6ae583c06396","6a270e6b003ebe52f7094fd7?","6a163d3b64b0819643240fdb","6a270c2e609d6ae583c06396","6a270e6b003ebe52f7094fd7?","30","[20,27,15,10,2,13,12,5,26,21,29,9,16,1,24,25,22,14,30,28,7,23,11,3,4,18,17,6,19,8]","[""U20"",""P27"",""P15"",""P10"",""P2"",""U13"",""P12"",""U5"",""P26"",""P21"",""P29"",""P9"",""P16"",""U1"",""P24"",""U25"",""P22"",""U14"",""U30"",""P28"",""P7"",""P23"",""U11"",""P3"",""U4"",""U18"",""U17"",""U6"",""U19"",""P8""]","[""P20"",""U27"",""U15"",""U10"",""U2"",""P13"",""U12"",""P5"",""U26"",""U21"",""U29"",""U9"",""U16"",""P1"",""U24"",""P25"",""U22"",""P14"",""P30"",""U28"",""U7"",""U23"",""P11"",""U3"",""P4"",""P18"",""P17"",""P6"",""P19"",""U8""]","5","5","0","0","0","0","","null","[""bathroom_v2.mp4""]","null","segmentation_video","","","","","","","","","bathroom_v2.mp4","bathroom","Unpredictable","[1.3054085000252835,3.374720084689463,6.1620063749886045,8.80542920832758,10.770425000330006,14.090569417026781,16.535221541991582,17.95180891794475,22.380043666300118,25.67419162464453,27.794403958370093,31.103994667003004,34.256718083698914,34.78710879233534]","14","","U4","4","1","25","0.5303907086364248","false","false","false","","false","0","0","false","false","false","false",""
"","","","","","survey-multi-choice","112","2.0.0","1486064","95","1","2026-06-08 19:24:25","segmentation_norming_randomized_order_maxrun_attention_v4","205.175.106.28","Mozilla/5.0 (Macintosh; Intel Mac OS X 10_15_7) AppleWebKit/605.1.15 (KHTML, like Gecko) Version/26.5 Safari/605.1.15","Macintosh","Safari","26.5","OS X","10_15_7","https://uencdihehs.cognition.run/","en-US,en;q=0.9","6a163d3b64b0819643240fdb","6a270c2e609d6ae583c06396","6a270e6b003ebe52f7094fd7?","6a163d3b64b0819643240fdb","6a270c2e609d6ae583c06396","6a270e6b003ebe52f7094fd7?","30","[20,27,15,10,2,13,12,5,26,21,29,9,16,1,24,25,22,14,30,28,7,23,11,3,4,18,17,6,19,8]","[""U20"",""P27"",""P15"",""P10"",""P2"",""U13"",""P12"",""U5"",""P26"",""P21"",""P29"",""P9"",""P16"",""U1"",""P24"",""U25"",""P22"",""U14"",""U30"",""P28"",""P7"",""P23"",""U11"",""P3"",""U4"",""U18"",""U17"",""U6"",""U19"",""P8""]","[""P20"",""U27"",""U15"",""U10"",""U2"",""P13"",""U12"",""P5"",""U26"",""U21"",""U29"",""U9"",""U16"",""P1"",""U24"",""P25"",""U22"",""P14"",""P30"",""U28"",""U7"",""U23"",""P11"",""U3"",""P4"",""P18"",""P17"",""P6"",""P19"",""U8""]","5","5","0","0","0","0","","2900","","{""confidence_rating"":""Slightly unconfident""}","confidence_question","[0]","","","","","","","","","bathroom","Unpredictable","","","","U4","4","1","25","","","","","","","","","","","","","Slightly unconfident"
"","","","","","video-keyboard-response","113","2.0.0","1510978","95","1","2026-06-08 19:24:25","segmentation_norming_randomized_order_maxrun_attention_v4","205.175.106.28","Mozilla/5.0 (Macintosh; Intel Mac OS X 10_15_7) AppleWebKit/605.1.15 (KHTML, like Gecko) Version/26.5 Safari/605.1.15","Macintosh","Safari","26.5","OS X","10_15_7","https://uencdihehs.cognition.run/","en-US,en;q=0.9","6a163d3b64b0819643240fdb","6a270c2e609d6ae583c06396","6a270e6b003ebe52f7094fd7?","6a163d3b64b0819643240fdb","6a270c2e609d6ae583c06396","6a270e6b003ebe52f7094fd7?","30","[20,27,15,10,2,13,12,5,26,21,29,9,16,1,24,25,22,14,30,28,7,23,11,3,4,18,17,6,19,8]","[""U20"",""P27"",""P15"",""P10"",""P2"",""U13"",""P12"",""U5"",""P26"",""P21"",""P29"",""P9"",""P16"",""U1"",""P24"",""U25"",""P22"",""U14"",""U30"",""P28"",""P7"",""P23"",""U11"",""P3"",""U4"",""U18"",""U17"",""U6"",""U19"",""P8""]","[""P20"",""U27"",""U15"",""U10"",""U2"",""P13"",""U12"",""P5"",""U26"",""U21"",""U29"",""U9"",""U16"",""P1"",""U24"",""P25"",""U22"",""P14"",""P30"",""U28"",""U7"",""U23"",""P11"",""U3"",""P4"",""P18"",""P17"",""P6"",""P19"",""U8""]","5","5","0","0","0","0","","null","[""painting_v2.mp4""]","null","segmentation_video","","","","","","","","","painting_v2.mp4","painting","Unpredictable","[1.7604729633699032,4.497240921700899,9.262252255664682,10.301300839010722,12.736968005669432,16.04361846365984,18.868913588657318,21.086736672983616,22.790536962946938,23.554939255996654]","10","","U18","18","1","26","0.7644022930497165","false","false","false","","false","0","0","false","false","false","false",""
"","","","","","survey-multi-choice","116","2.0.0","1513147","95","1","2026-06-08 19:24:25","segmentation_norming_randomized_order_maxrun_attention_v4","205.175.106.28","Mozilla/5.0 (Macintosh; Intel Mac OS X 10_15_7) AppleWebKit/605.1.15 (KHTML, like Gecko) Version/26.5 Safari/605.1.15","Macintosh","Safari","26.5","OS X","10_15_7","https://uencdihehs.cognition.run/","en-US,en;q=0.9","6a163d3b64b0819643240fdb","6a270c2e609d6ae583c06396","6a270e6b003ebe52f7094fd7?","6a163d3b64b0819643240fdb","6a270c2e609d6ae583c06396","6a270e6b003ebe52f7094fd7?","30","[20,27,15,10,2,13,12,5,26,21,29,9,16,1,24,25,22,14,30,28,7,23,11,3,4,18,17,6,19,8]","[""U20"",""P27"",""P15"",""P10"",""P2"",""U13"",""P12"",""U5"",""P26"",""P21"",""P29"",""P9"",""P16"",""U1"",""P24"",""U25"",""P22"",""U14"",""U30"",""P28"",""P7"",""P23"",""U11"",""P3"",""U4"",""U18"",""U17"",""U6"",""U19"",""P8""]","[""P20"",""U27"",""U15"",""U10"",""U2"",""P13"",""U12"",""P5"",""U26"",""U21"",""U29"",""U9"",""U16"",""P1"",""U24"",""P25"",""U22"",""P14"",""P30"",""U28"",""U7"",""U23"",""P11"",""U3"",""P4"",""P18"",""P17"",""P6"",""P19"",""U8""]","5","5","0","0","0","0","","2165","","{""confidence_rating"":""Moderately confident""}","confidence_question","[0]","","","","","","","","","painting","Unpredictable","","","","U18","18","1","26","","","","","","","","","","","","","Moderately confident"
"","","","","","video-keyboard-response","117","2.0.0","1551679","95","1","2026-06-08 19:24:25","segmentation_norming_randomized_order_maxrun_attention_v4","205.175.106.28","Mozilla/5.0 (Macintosh; Intel Mac OS X 10_15_7) AppleWebKit/605.1.15 (KHTML, like Gecko) Version/26.5 Safari/605.1.15","Macintosh","Safari","26.5","OS X","10_15_7","https://uencdihehs.cognition.run/","en-US,en;q=0.9","6a163d3b64b0819643240fdb","6a270c2e609d6ae583c06396","6a270e6b003ebe52f7094fd7?","6a163d3b64b0819643240fdb","6a270c2e609d6ae583c06396","6a270e6b003ebe52f7094fd7?","30","[20,27,15,10,2,13,12,5,26,21,29,9,16,1,24,25,22,14,30,28,7,23,11,3,4,18,17,6,19,8]","[""U20"",""P27"",""P15"",""P10"",""P2"",""U13"",""P12"",""U5"",""P26"",""P21"",""P29"",""P9"",""P16"",""U1"",""P24"",""U25"",""P22"",""U14"",""U30"",""P28"",""P7"",""P23"",""U11"",""P3"",""U4"",""U18"",""U17"",""U6"",""U19"",""P8""]","[""P20"",""U27"",""U15"",""U10"",""U2"",""P13"",""U12"",""P5"",""U26"",""U21"",""U29"",""U9"",""U16"",""P1"",""U24"",""P25"",""U22"",""P14"",""P30"",""U28"",""U7"",""U23"",""P11"",""U3"",""P4"",""P18"",""P17"",""P6"",""P19"",""U8""]","5","5","0","0","0","0","","null","[""music_v2.mp4""]","null","segmentation_video","","","","","","","","","music_v2.mp4","music","Unpredictable","[5.64602550797773,10.99851450798035,17.043780132330177,20.55928275867979,24.08347700763553,25.838395216037128,30.194521216984608,31.5001834243366,34.074104257693804,37.20027954967506]","10","","U17","17","1","27","1.3056622073519932","false","false","false","","false","0","0","false","false","false","false",""
"","","","","","survey-multi-choice","120","2.0.0","1570368","95","1","2026-06-08 19:24:25","segmentation_norming_randomized_order_maxrun_attention_v4","205.175.106.28","Mozilla/5.0 (Macintosh; Intel Mac OS X 10_15_7) AppleWebKit/605.1.15 (KHTML, like Gecko) Version/26.5 Safari/605.1.15","Macintosh","Safari","26.5","OS X","10_15_7","https://uencdihehs.cognition.run/","en-US,en;q=0.9","6a163d3b64b0819643240fdb","6a270c2e609d6ae583c06396","6a270e6b003ebe52f7094fd7?","6a163d3b64b0819643240fdb","6a270c2e609d6ae583c06396","6a270e6b003ebe52f7094fd7?","30","[20,27,15,10,2,13,12,5,26,21,29,9,16,1,24,25,22,14,30,28,7,23,11,3,4,18,17,6,19,8]","[""U20"",""P27"",""P15"",""P10"",""P2"",""U13"",""P12"",""U5"",""P26"",""P21"",""P29"",""P9"",""P16"",""U1"",""P24"",""U25"",""P22"",""U14"",""U30"",""P28"",""P7"",""P23"",""U11"",""P3"",""U4"",""U18"",""U17"",""U6"",""U19"",""P8""]","[""P20"",""U27"",""U15"",""U10"",""U2"",""P13"",""U12"",""P5"",""U26"",""U21"",""U29"",""U9"",""U16"",""P1"",""U24"",""P25"",""U22"",""P14"",""P30"",""U28"",""U7"",""U23"",""P11"",""U3"",""P4"",""P18"",""P17"",""P6"",""P19"",""U8""]","5","5","0","0","0","0","","18684","","{""confidence_rating"":""Moderately confident""}","confidence_question","[0]","","","","","","","","","music","Unpredictable","","","","U17","17","1","27","","","","","","","","","","","","","Moderately confident"
"","","","","","video-keyboard-response","121","2.0.0","1605534","95","1","2026-06-08 19:24:25","segmentation_norming_randomized_order_maxrun_attention_v4","205.175.106.28","Mozilla/5.0 (Macintosh; Intel Mac OS X 10_15_7) AppleWebKit/605.1.15 (KHTML, like Gecko) Version/26.5 Safari/605.1.15","Macintosh","Safari","26.5","OS X","10_15_7","https://uencdihehs.cognition.run/","en-US,en;q=0.9","6a163d3b64b0819643240fdb","6a270c2e609d6ae583c06396","6a270e6b003ebe52f7094fd7?","6a163d3b64b0819643240fdb","6a270c2e609d6ae583c06396","6a270e6b003ebe52f7094fd7?","30","[20,27,15,10,2,13,12,5,26,21,29,9,16,1,24,25,22,14,30,28,7,23,11,3,4,18,17,6,19,8]","[""U20"",""P27"",""P15"",""P10"",""P2"",""U13"",""P12"",""U5"",""P26"",""P21"",""P29"",""P9"",""P16"",""U1"",""P24"",""U25"",""P22"",""U14"",""U30"",""P28"",""P7"",""P23"",""U11"",""P3"",""U4"",""U18"",""U17"",""U6"",""U19"",""P8""]","[""P20"",""U27"",""U15"",""U10"",""U2"",""P13"",""U12"",""P5"",""U26"",""U21"",""U29"",""U9"",""U16"",""P1"",""U24"",""P25"",""U22"",""P14"",""P30"",""U28"",""U7"",""U23"",""P11"",""U3"",""P4"",""P18"",""P17"",""P6"",""P19"",""U8""]","5","5","0","0","0","0","","null","[""bedding_v2.mp4""]","null","segmentation_video","","","","","","","","","bedding_v2.mp4","bedding","Unpredictable","[4.886449832952745,9.48373491632863,18.45529199966823,21.588971082981725,26.920612333002772,30.897194375336774,33.90611416564189]","7","","U6","6","1","28","3.0089197903051144","false","false","false","","false","0","0","false","false","false","false",""
"","","","","","survey-multi-choice","124","2.0.0","1608099","95","1","2026-06-08 19:24:25","segmentation_norming_randomized_order_maxrun_attention_v4","205.175.106.28","Mozilla/5.0 (Macintosh; Intel Mac OS X 10_15_7) AppleWebKit/605.1.15 (KHTML, like Gecko) Version/26.5 Safari/605.1.15","Macintosh","Safari","26.5","OS X","10_15_7","https://uencdihehs.cognition.run/","en-US,en;q=0.9","6a163d3b64b0819643240fdb","6a270c2e609d6ae583c06396","6a270e6b003ebe52f7094fd7?","6a163d3b64b0819643240fdb","6a270c2e609d6ae583c06396","6a270e6b003ebe52f7094fd7?","30","[20,27,15,10,2,13,12,5,26,21,29,9,16,1,24,25,22,14,30,28,7,23,11,3,4,18,17,6,19,8]","[""U20"",""P27"",""P15"",""P10"",""P2"",""U13"",""P12"",""U5"",""P26"",""P21"",""P29"",""P9"",""P16"",""U1"",""P24"",""U25"",""P22"",""U14"",""U30"",""P28"",""P7"",""P23"",""U11"",""P3"",""U4"",""U18"",""U17"",""U6"",""U19"",""P8""]","[""P20"",""U27"",""U15"",""U10"",""U2"",""P13"",""U12"",""P5"",""U26"",""U21"",""U29"",""U9"",""U16"",""P1"",""U24"",""P25"",""U22"",""P14"",""P30"",""U28"",""U7"",""U23"",""P11"",""U3"",""P4"",""P18"",""P17"",""P6"",""P19"",""U8""]","5","5","0","0","0","0","","2561","","{""confidence_rating"":""Neutral""}","confidence_question","[0]","","","","","","","","","bedding","Unpredictable","","","","U6","6","1","28","","","","","","","","","","","","","Neutral"
