"success","timeout","failed_images","failed_audio","failed_video","trial_type","trial_index","plugin_version","time_elapsed","run_id","condition","recorded_at","source_code_version","ip","user_agent","device","browser","browser_version","platform","platform_version","referer","accept_language","PROLIFIC_PID","STUDY_ID","SESSION_ID","subject_id","study_id","session_id","pair_count","randomized_pair_order","block1_codes","block2_codes","max_run_block1","max_run_block2","fullscreen_exit_count","tab_switch_count","video_attention_failure_count","total_attention_violation_count","view_history","rt","stimulus","response","trial_kind","question_order","spacebar_question_answer","attention_question_answer","spacebar_question_correct","attention_question_correct","instruction_check_passed","demo_index","demo_code","stimulus_file","stimulus_name","predictability","boundary_times_sec","boundary_count","value","video_code","pair_number","block","global_position_in_block","min_press_gap_sec","no_press_failure","rapid_press_failure","video_attention_failed","video_attention_failure_type","last_video_had_any_attention_violation","current_video_fullscreen_exit_count","current_video_tab_switch_count","current_video_had_fullscreen_exit","current_video_had_tab_switch","current_video_had_video_attention_failure","skipped_video_debug","confidence_rating"
"true","false","[]","[]","[]","preload","0","2.0.0","1826","91","1","2026-06-08 19:05:49","segmentation_norming_randomized_order_maxrun_attention_v4","71.7.130.172","Mozilla/5.0 (Windows NT 10.0; Win64; x64) AppleWebKit/537.36 (KHTML, like Gecko) Chrome/148.0.0.0 Safari/537.36","WebKit","Chrome","148.0.0.0","Windows","10.0","https://uencdihehs.cognition.run/?PROLIFIC_PID=69d2dbab29ed321c1b402b5e&STUDY_ID=6a270c2e609d6ae583c06396&STUDY_ID=6a270c2e609d6ae583c06396&SESSION_ID=6a2710ed9393086407134896?PROLIFIC_PID=69d2dbab29ed321c1b402b5e&SESSION_ID=6a2710ed9393086407134896?","en-US,en;q=0.9","69d2dbab29ed321c1b402b5e","6a270c2e609d6ae583c06396","6a2710ed9393086407134896?","69d2dbab29ed321c1b402b5e","6a270c2e609d6ae583c06396","6a2710ed9393086407134896?","30","[13,8,27,17,21,14,15,2,4,25,30,16,12,5,7,29,22,19,11,26,18,6,1,20,28,9,24,23,3,10]","[""U13"",""U8"",""P27"",""P17"",""P21"",""U14"",""U15"",""P2"",""U4"",""P25"",""U30"",""P16"",""U12"",""P5"",""P7"",""U29"",""P22"",""P19"",""U11"",""U26"",""P18"",""P6"",""P1"",""U20"",""P28"",""P9"",""P24"",""U23"",""P3"",""P10""]","[""P13"",""P8"",""U27"",""U17"",""U21"",""P14"",""P15"",""U2"",""P4"",""U25"",""P30"",""U16"",""P12"",""U5"",""U7"",""P29"",""U22"",""U19"",""P11"",""P26"",""U18"",""U6"",""U1"",""P20"",""U28"",""U9"",""U24"",""P23"",""U3"",""U10""]","3","3","0","0","0","0","","","","","","","","","","","","","","","","","","","","","","","","","","","","","","","","","","","",""
"","","","","","instructions","1","2.0.0","8718","91","1","2026-06-08 19:05:49","segmentation_norming_randomized_order_maxrun_attention_v4","71.7.130.172","Mozilla/5.0 (Windows NT 10.0; Win64; x64) AppleWebKit/537.36 (KHTML, like Gecko) Chrome/148.0.0.0 Safari/537.36","WebKit","Chrome","148.0.0.0","Windows","10.0","https://uencdihehs.cognition.run/?PROLIFIC_PID=69d2dbab29ed321c1b402b5e&STUDY_ID=6a270c2e609d6ae583c06396&STUDY_ID=6a270c2e609d6ae583c06396&SESSION_ID=6a2710ed9393086407134896?PROLIFIC_PID=69d2dbab29ed321c1b402b5e&SESSION_ID=6a2710ed9393086407134896?","en-US,en;q=0.9","69d2dbab29ed321c1b402b5e","6a270c2e609d6ae583c06396","6a2710ed9393086407134896?","69d2dbab29ed321c1b402b5e","6a270c2e609d6ae583c06396","6a2710ed9393086407134896?","30","[13,8,27,17,21,14,15,2,4,25,30,16,12,5,7,29,22,19,11,26,18,6,1,20,28,9,24,23,3,10]","[""U13"",""U8"",""P27"",""P17"",""P21"",""U14"",""U15"",""P2"",""U4"",""P25"",""U30"",""P16"",""U12"",""P5"",""P7"",""U29"",""P22"",""P19"",""U11"",""U26"",""P18"",""P6"",""P1"",""U20"",""P28"",""P9"",""P24"",""U23"",""P3"",""P10""]","[""P13"",""P8"",""U27"",""U17"",""U21"",""P14"",""P15"",""U2"",""P4"",""U25"",""P30"",""U16"",""P12"",""U5"",""U7"",""P29"",""U22"",""U19"",""P11"",""P26"",""U18"",""U6"",""U1"",""P20"",""U28"",""U9"",""U24"",""P23"",""U3"",""U10""]","3","3","0","0","0","0","[{""page_index"":0,""viewing_time"":6891}]","6891","","","","","","","","","","","","","","","","","","","","","","","","","","","","","","","","","",""
"true","","","","","fullscreen","2","2.0.0","12278","91","1","2026-06-08 19:05:49","segmentation_norming_randomized_order_maxrun_attention_v4","71.7.130.172","Mozilla/5.0 (Windows NT 10.0; Win64; x64) AppleWebKit/537.36 (KHTML, like Gecko) Chrome/148.0.0.0 Safari/537.36","WebKit","Chrome","148.0.0.0","Windows","10.0","https://uencdihehs.cognition.run/?PROLIFIC_PID=69d2dbab29ed321c1b402b5e&STUDY_ID=6a270c2e609d6ae583c06396&STUDY_ID=6a270c2e609d6ae583c06396&SESSION_ID=6a2710ed9393086407134896?PROLIFIC_PID=69d2dbab29ed321c1b402b5e&SESSION_ID=6a2710ed9393086407134896?","en-US,en;q=0.9","69d2dbab29ed321c1b402b5e","6a270c2e609d6ae583c06396","6a2710ed9393086407134896?","69d2dbab29ed321c1b402b5e","6a270c2e609d6ae583c06396","6a2710ed9393086407134896?","30","[13,8,27,17,21,14,15,2,4,25,30,16,12,5,7,29,22,19,11,26,18,6,1,20,28,9,24,23,3,10]","[""U13"",""U8"",""P27"",""P17"",""P21"",""U14"",""U15"",""P2"",""U4"",""P25"",""U30"",""P16"",""U12"",""P5"",""P7"",""U29"",""P22"",""P19"",""U11"",""U26"",""P18"",""P6"",""P1"",""U20"",""P28"",""P9"",""P24"",""U23"",""P3"",""P10""]","[""P13"",""P8"",""U27"",""U17"",""U21"",""P14"",""P15"",""U2"",""P4"",""U25"",""P30"",""U16"",""P12"",""U5"",""U7"",""P29"",""U22"",""U19"",""P11"",""P26"",""U18"",""U6"",""U1"",""P20"",""U28"",""U9"",""U24"",""P23"",""U3"",""U10""]","3","3","0","0","0","0","","2553","","","","","","","","","","","","","","","","","","","","","","","","","","","","","","","","","",""
"","","","","","html-button-response","3","2.0.0","23696","91","1","2026-06-08 19:05:49","segmentation_norming_randomized_order_maxrun_attention_v4","71.7.130.172","Mozilla/5.0 (Windows NT 10.0; Win64; x64) AppleWebKit/537.36 (KHTML, like Gecko) Chrome/148.0.0.0 Safari/537.36","WebKit","Chrome","148.0.0.0","Windows","10.0","https://uencdihehs.cognition.run/?PROLIFIC_PID=69d2dbab29ed321c1b402b5e&STUDY_ID=6a270c2e609d6ae583c06396&STUDY_ID=6a270c2e609d6ae583c06396&SESSION_ID=6a2710ed9393086407134896?PROLIFIC_PID=69d2dbab29ed321c1b402b5e&SESSION_ID=6a2710ed9393086407134896?","en-US,en;q=0.9","69d2dbab29ed321c1b402b5e","6a270c2e609d6ae583c06396","6a2710ed9393086407134896?","69d2dbab29ed321c1b402b5e","6a270c2e609d6ae583c06396","6a2710ed9393086407134896?","30","[13,8,27,17,21,14,15,2,4,25,30,16,12,5,7,29,22,19,11,26,18,6,1,20,28,9,24,23,3,10]","[""U13"",""U8"",""P27"",""P17"",""P21"",""U14"",""U15"",""P2"",""U4"",""P25"",""U30"",""P16"",""U12"",""P5"",""P7"",""U29"",""P22"",""P19"",""U11"",""U26"",""P18"",""P6"",""P1"",""U20"",""P28"",""P9"",""P24"",""U23"",""P3"",""P10""]","[""P13"",""P8"",""U27"",""U17"",""U21"",""P14"",""P15"",""U2"",""P4"",""U25"",""P30"",""U16"",""P12"",""U5"",""U7"",""P29"",""U22"",""U19"",""P11"",""P26"",""U18"",""U6"",""U1"",""P20"",""U28"",""U9"",""U24"",""P23"",""U3"",""U10""]","3","3","0","0","0","0","","11417","The experiment requires continuous attention and full-screen participation throughout the task.<br><br>You may be asked to exit the experiment and cancel your participation if you exit Full Screen Mode, switch tabs, or fail to meet the attention criteria more than the allowed number of times.<br><br>Please read the following instructions carefully.","0","","","","","","","","","","","","","","","","","","","","","","","","","","","","","","","",""
"","","","","","instructions","4","2.0.0","69620","91","1","2026-06-08 19:05:49","segmentation_norming_randomized_order_maxrun_attention_v4","71.7.130.172","Mozilla/5.0 (Windows NT 10.0; Win64; x64) AppleWebKit/537.36 (KHTML, like Gecko) Chrome/148.0.0.0 Safari/537.36","WebKit","Chrome","148.0.0.0","Windows","10.0","https://uencdihehs.cognition.run/?PROLIFIC_PID=69d2dbab29ed321c1b402b5e&STUDY_ID=6a270c2e609d6ae583c06396&STUDY_ID=6a270c2e609d6ae583c06396&SESSION_ID=6a2710ed9393086407134896?PROLIFIC_PID=69d2dbab29ed321c1b402b5e&SESSION_ID=6a2710ed9393086407134896?","en-US,en;q=0.9","69d2dbab29ed321c1b402b5e","6a270c2e609d6ae583c06396","6a2710ed9393086407134896?","69d2dbab29ed321c1b402b5e","6a270c2e609d6ae583c06396","6a2710ed9393086407134896?","30","[13,8,27,17,21,14,15,2,4,25,30,16,12,5,7,29,22,19,11,26,18,6,1,20,28,9,24,23,3,10]","[""U13"",""U8"",""P27"",""P17"",""P21"",""U14"",""U15"",""P2"",""U4"",""P25"",""U30"",""P16"",""U12"",""P5"",""P7"",""U29"",""P22"",""P19"",""U11"",""U26"",""P18"",""P6"",""P1"",""U20"",""P28"",""P9"",""P24"",""U23"",""P3"",""P10""]","[""P13"",""P8"",""U27"",""U17"",""U21"",""P14"",""P15"",""U2"",""P4"",""U25"",""P30"",""U16"",""P12"",""U5"",""U7"",""P29"",""U22"",""U19"",""P11"",""P26"",""U18"",""U6"",""U1"",""P20"",""U28"",""U9"",""U24"",""P23"",""U3"",""U10""]","3","3","0","0","0","0","[{""page_index"":0,""viewing_time"":45924}]","45924","","","","","","","","","","","","","","","","","","","","","","","","","","","","","","","","","",""
"","","","","","html-button-response","5","2.0.0","146540","91","1","2026-06-08 19:05:49","segmentation_norming_randomized_order_maxrun_attention_v4","71.7.130.172","Mozilla/5.0 (Windows NT 10.0; Win64; x64) AppleWebKit/537.36 (KHTML, like Gecko) Chrome/148.0.0.0 Safari/537.36","WebKit","Chrome","148.0.0.0","Windows","10.0","https://uencdihehs.cognition.run/?PROLIFIC_PID=69d2dbab29ed321c1b402b5e&STUDY_ID=6a270c2e609d6ae583c06396&STUDY_ID=6a270c2e609d6ae583c06396&SESSION_ID=6a2710ed9393086407134896?PROLIFIC_PID=69d2dbab29ed321c1b402b5e&SESSION_ID=6a2710ed9393086407134896?","en-US,en;q=0.9","69d2dbab29ed321c1b402b5e","6a270c2e609d6ae583c06396","6a2710ed9393086407134896?","69d2dbab29ed321c1b402b5e","6a270c2e609d6ae583c06396","6a2710ed9393086407134896?","30","[13,8,27,17,21,14,15,2,4,25,30,16,12,5,7,29,22,19,11,26,18,6,1,20,28,9,24,23,3,10]","[""U13"",""U8"",""P27"",""P17"",""P21"",""U14"",""U15"",""P2"",""U4"",""P25"",""U30"",""P16"",""U12"",""P5"",""P7"",""U29"",""P22"",""P19"",""U11"",""U26"",""P18"",""P6"",""P1"",""U20"",""P28"",""P9"",""P24"",""U23"",""P3"",""P10""]","[""P13"",""P8"",""U27"",""U17"",""U21"",""P14"",""P15"",""U2"",""P4"",""U25"",""P30"",""U16"",""P12"",""U5"",""U7"",""P29"",""U22"",""U19"",""P11"",""P26"",""U18"",""U6"",""U1"",""P20"",""U28"",""U9"",""U24"",""P23"",""U3"",""U10""]","3","3","0","0","0","0","","76919","Please pay attention when watching videos and marking boundaries.<br><br>There are several hidden attention criteria to make sure you watch the videos carefully.<br><br>If you fail these hidden criteria more than the allowed number of times, you may be asked to exit the experiment.","0","","","","","","","","","","","","","","","","","","","","","","","","","","","","","","","",""
"","","","","","survey-multi-choice","6","2.0.0","159515","91","1","2026-06-08 19:05:49","segmentation_norming_randomized_order_maxrun_attention_v4","71.7.130.172","Mozilla/5.0 (Windows NT 10.0; Win64; x64) AppleWebKit/537.36 (KHTML, like Gecko) Chrome/148.0.0.0 Safari/537.36","WebKit","Chrome","148.0.0.0","Windows","10.0","https://uencdihehs.cognition.run/?PROLIFIC_PID=69d2dbab29ed321c1b402b5e&STUDY_ID=6a270c2e609d6ae583c06396&STUDY_ID=6a270c2e609d6ae583c06396&SESSION_ID=6a2710ed9393086407134896?PROLIFIC_PID=69d2dbab29ed321c1b402b5e&SESSION_ID=6a2710ed9393086407134896?","en-US,en;q=0.9","69d2dbab29ed321c1b402b5e","6a270c2e609d6ae583c06396","6a2710ed9393086407134896?","69d2dbab29ed321c1b402b5e","6a270c2e609d6ae583c06396","6a2710ed9393086407134896?","30","[13,8,27,17,21,14,15,2,4,25,30,16,12,5,7,29,22,19,11,26,18,6,1,20,28,9,24,23,3,10]","[""U13"",""U8"",""P27"",""P17"",""P21"",""U14"",""U15"",""P2"",""U4"",""P25"",""U30"",""P16"",""U12"",""P5"",""P7"",""U29"",""P22"",""P19"",""U11"",""U26"",""P18"",""P6"",""P1"",""U20"",""P28"",""P9"",""P24"",""U23"",""P3"",""P10""]","[""P13"",""P8"",""U27"",""U17"",""U21"",""P14"",""P15"",""U2"",""P4"",""U25"",""P30"",""U16"",""P12"",""U5"",""U7"",""P29"",""U22"",""U19"",""P11"",""P26"",""U18"",""U6"",""U1"",""P20"",""U28"",""U9"",""U24"",""P23"",""U3"",""U10""]","3","3","0","0","0","0","","12974","","{""spacebar_question"":""Between the smallest meaningful events or actions"",""attention_question"":""Press space bar to segment the video""}","comprehension_check","[0,1]","Between the smallest meaningful events or actions","Press space bar to segment the video","true","true","true","","","","","","","","","","","","","","","","","","","","","","","","",""
"","","","","","html-button-response","8","2.0.0","181627","91","1","2026-06-08 19:05:49","segmentation_norming_randomized_order_maxrun_attention_v4","71.7.130.172","Mozilla/5.0 (Windows NT 10.0; Win64; x64) AppleWebKit/537.36 (KHTML, like Gecko) Chrome/148.0.0.0 Safari/537.36","WebKit","Chrome","148.0.0.0","Windows","10.0","https://uencdihehs.cognition.run/?PROLIFIC_PID=69d2dbab29ed321c1b402b5e&STUDY_ID=6a270c2e609d6ae583c06396&STUDY_ID=6a270c2e609d6ae583c06396&SESSION_ID=6a2710ed9393086407134896?PROLIFIC_PID=69d2dbab29ed321c1b402b5e&SESSION_ID=6a2710ed9393086407134896?","en-US,en;q=0.9","69d2dbab29ed321c1b402b5e","6a270c2e609d6ae583c06396","6a2710ed9393086407134896?","69d2dbab29ed321c1b402b5e","6a270c2e609d6ae583c06396","6a2710ed9393086407134896?","30","[13,8,27,17,21,14,15,2,4,25,30,16,12,5,7,29,22,19,11,26,18,6,1,20,28,9,24,23,3,10]","[""U13"",""U8"",""P27"",""P17"",""P21"",""U14"",""U15"",""P2"",""U4"",""P25"",""U30"",""P16"",""U12"",""P5"",""P7"",""U29"",""P22"",""P19"",""U11"",""U26"",""P18"",""P6"",""P1"",""U20"",""P28"",""P9"",""P24"",""U23"",""P3"",""P10""]","[""P13"",""P8"",""U27"",""U17"",""U21"",""P14"",""P15"",""U2"",""P4"",""U25"",""P30"",""U16"",""P12"",""U5"",""U7"",""P29"",""U22"",""U19"",""P11"",""P26"",""U18"",""U6"",""U1"",""P20"",""U28"",""U9"",""U24"",""P23"",""U3"",""U10""]","3","3","0","0","0","0","","22111","You have learned the instructions for the task! Here is a demo trial.<br><br>Like what you will do in the main experiment,<br><br> you will watch a movie clip and at the same time mark off the activity in the movie into the <strong>smallest meaningful units</strong> that seem natural and meaningful to you.<br><br>Remember, tap the <strong>SPACE BAR</strong> to mark off a boundary between two <strong>smallest meaningful units</strong> of activity.<br><br>A green bar will appear at the bottom of the screen when you press the button.<br><br>","0","","","","","","","","","","","","","","","","","","","","","","","","","","","","","","","",""
"","","","","","video-keyboard-response","9","2.0.0","200261","91","1","2026-06-08 19:05:49","segmentation_norming_randomized_order_maxrun_attention_v4","71.7.130.172","Mozilla/5.0 (Windows NT 10.0; Win64; x64) AppleWebKit/537.36 (KHTML, like Gecko) Chrome/148.0.0.0 Safari/537.36","WebKit","Chrome","148.0.0.0","Windows","10.0","https://uencdihehs.cognition.run/?PROLIFIC_PID=69d2dbab29ed321c1b402b5e&STUDY_ID=6a270c2e609d6ae583c06396&STUDY_ID=6a270c2e609d6ae583c06396&SESSION_ID=6a2710ed9393086407134896?PROLIFIC_PID=69d2dbab29ed321c1b402b5e&SESSION_ID=6a2710ed9393086407134896?","en-US,en;q=0.9","69d2dbab29ed321c1b402b5e","6a270c2e609d6ae583c06396","6a2710ed9393086407134896?","69d2dbab29ed321c1b402b5e","6a270c2e609d6ae583c06396","6a2710ed9393086407134896?","30","[13,8,27,17,21,14,15,2,4,25,30,16,12,5,7,29,22,19,11,26,18,6,1,20,28,9,24,23,3,10]","[""U13"",""U8"",""P27"",""P17"",""P21"",""U14"",""U15"",""P2"",""U4"",""P25"",""U30"",""P16"",""U12"",""P5"",""P7"",""U29"",""P22"",""P19"",""U11"",""U26"",""P18"",""P6"",""P1"",""U20"",""P28"",""P9"",""P24"",""U23"",""P3"",""P10""]","[""P13"",""P8"",""U27"",""U17"",""U21"",""P14"",""P15"",""U2"",""P4"",""U25"",""P30"",""U16"",""P12"",""U5"",""U7"",""P29"",""U22"",""U19"",""P11"",""P26"",""U18"",""U6"",""U1"",""P20"",""U28"",""U9"",""U24"",""P23"",""U3"",""U10""]","3","3","0","0","0","0","","null","[""library_v1.mp4""]","null","demo_video","","","","","","","1","demo1","library_v1.mp4","library","Demo","[]","0","","","","","","","","","","","","","","","","","",""
"","","","","","call-function","10","2.0.0","200261","91","1","2026-06-08 19:05:49","segmentation_norming_randomized_order_maxrun_attention_v4","71.7.130.172","Mozilla/5.0 (Windows NT 10.0; Win64; x64) AppleWebKit/537.36 (KHTML, like Gecko) Chrome/148.0.0.0 Safari/537.36","WebKit","Chrome","148.0.0.0","Windows","10.0","https://uencdihehs.cognition.run/?PROLIFIC_PID=69d2dbab29ed321c1b402b5e&STUDY_ID=6a270c2e609d6ae583c06396&STUDY_ID=6a270c2e609d6ae583c06396&SESSION_ID=6a2710ed9393086407134896?PROLIFIC_PID=69d2dbab29ed321c1b402b5e&SESSION_ID=6a2710ed9393086407134896?","en-US,en;q=0.9","69d2dbab29ed321c1b402b5e","6a270c2e609d6ae583c06396","6a2710ed9393086407134896?","69d2dbab29ed321c1b402b5e","6a270c2e609d6ae583c06396","6a2710ed9393086407134896?","30","[13,8,27,17,21,14,15,2,4,25,30,16,12,5,7,29,22,19,11,26,18,6,1,20,28,9,24,23,3,10]","[""U13"",""U8"",""P27"",""P17"",""P21"",""U14"",""U15"",""P2"",""U4"",""P25"",""U30"",""P16"",""U12"",""P5"",""P7"",""U29"",""P22"",""P19"",""U11"",""U26"",""P18"",""P6"",""P1"",""U20"",""P28"",""P9"",""P24"",""U23"",""P3"",""P10""]","[""P13"",""P8"",""U27"",""U17"",""U21"",""P14"",""P15"",""U2"",""P4"",""U25"",""P30"",""U16"",""P12"",""U5"",""U7"",""P29"",""U22"",""U19"",""P11"",""P26"",""U18"",""U6"",""U1"",""P20"",""U28"",""U9"",""U24"",""P23"",""U3"",""U10""]","3","3","0","0","0","0","","","","","","","","","","","","","","","","","","","","","","","","","","","","","","","","","","","",""
"","","","","","html-button-response","11","2.0.0","210450","91","1","2026-06-08 19:05:49","segmentation_norming_randomized_order_maxrun_attention_v4","71.7.130.172","Mozilla/5.0 (Windows NT 10.0; Win64; x64) AppleWebKit/537.36 (KHTML, like Gecko) Chrome/148.0.0.0 Safari/537.36","WebKit","Chrome","148.0.0.0","Windows","10.0","https://uencdihehs.cognition.run/?PROLIFIC_PID=69d2dbab29ed321c1b402b5e&STUDY_ID=6a270c2e609d6ae583c06396&STUDY_ID=6a270c2e609d6ae583c06396&SESSION_ID=6a2710ed9393086407134896?PROLIFIC_PID=69d2dbab29ed321c1b402b5e&SESSION_ID=6a2710ed9393086407134896?","en-US,en;q=0.9","69d2dbab29ed321c1b402b5e","6a270c2e609d6ae583c06396","6a2710ed9393086407134896?","69d2dbab29ed321c1b402b5e","6a270c2e609d6ae583c06396","6a2710ed9393086407134896?","30","[13,8,27,17,21,14,15,2,4,25,30,16,12,5,7,29,22,19,11,26,18,6,1,20,28,9,24,23,3,10]","[""U13"",""U8"",""P27"",""P17"",""P21"",""U14"",""U15"",""P2"",""U4"",""P25"",""U30"",""P16"",""U12"",""P5"",""P7"",""U29"",""P22"",""P19"",""U11"",""U26"",""P18"",""P6"",""P1"",""U20"",""P28"",""P9"",""P24"",""U23"",""P3"",""P10""]","[""P13"",""P8"",""U27"",""U17"",""U21"",""P14"",""P15"",""U2"",""P4"",""U25"",""P30"",""U16"",""P12"",""U5"",""U7"",""P29"",""U22"",""U19"",""P11"",""P26"",""U18"",""U6"",""U1"",""P20"",""U28"",""U9"",""U24"",""P23"",""U3"",""U10""]","3","3","0","0","0","0","","10189","Usually people tend to press the button more times than you did.<br><br>As a reminder, press the <strong>SPACE BAR</strong> whenever one <strong>smallest meaningful unit</strong> of activity ends and another begins.<br><br>Let's try another demo trial.<br><br>","0","demo_feedback","","","","","","","","","","","","","","","","","","","","","","","","","","","","","","",""
"","","","","","video-keyboard-response","12","2.0.0","245960","91","1","2026-06-08 19:05:49","segmentation_norming_randomized_order_maxrun_attention_v4","71.7.130.172","Mozilla/5.0 (Windows NT 10.0; Win64; x64) AppleWebKit/537.36 (KHTML, like Gecko) Chrome/148.0.0.0 Safari/537.36","WebKit","Chrome","148.0.0.0","Windows","10.0","https://uencdihehs.cognition.run/?PROLIFIC_PID=69d2dbab29ed321c1b402b5e&STUDY_ID=6a270c2e609d6ae583c06396&STUDY_ID=6a270c2e609d6ae583c06396&SESSION_ID=6a2710ed9393086407134896?PROLIFIC_PID=69d2dbab29ed321c1b402b5e&SESSION_ID=6a2710ed9393086407134896?","en-US,en;q=0.9","69d2dbab29ed321c1b402b5e","6a270c2e609d6ae583c06396","6a2710ed9393086407134896?","69d2dbab29ed321c1b402b5e","6a270c2e609d6ae583c06396","6a2710ed9393086407134896?","30","[13,8,27,17,21,14,15,2,4,25,30,16,12,5,7,29,22,19,11,26,18,6,1,20,28,9,24,23,3,10]","[""U13"",""U8"",""P27"",""P17"",""P21"",""U14"",""U15"",""P2"",""U4"",""P25"",""U30"",""P16"",""U12"",""P5"",""P7"",""U29"",""P22"",""P19"",""U11"",""U26"",""P18"",""P6"",""P1"",""U20"",""P28"",""P9"",""P24"",""U23"",""P3"",""P10""]","[""P13"",""P8"",""U27"",""U17"",""U21"",""P14"",""P15"",""U2"",""P4"",""U25"",""P30"",""U16"",""P12"",""U5"",""U7"",""P29"",""U22"",""U19"",""P11"",""P26"",""U18"",""U6"",""U1"",""P20"",""U28"",""U9"",""U24"",""P23"",""U3"",""U10""]","3","3","0","0","0","0","","null","[""garden_v1.mp4""]","null","demo_video","","","","","","","2","demo2","garden_v1.mp4","garden","Demo","[1.219871,2.31274,3.521834,4.394047,5.913703,6.698442,7.926489,8.757615,10.228265,12.956359,14.912339,15.733973,16.939043,18.31523,20.116887,21.762773,24.220909,26.697099,30.055284]","19","","","","","","","","","","","","","","","","","",""
"","","","","","call-function","13","2.0.0","245960","91","1","2026-06-08 19:05:49","segmentation_norming_randomized_order_maxrun_attention_v4","71.7.130.172","Mozilla/5.0 (Windows NT 10.0; Win64; x64) AppleWebKit/537.36 (KHTML, like Gecko) Chrome/148.0.0.0 Safari/537.36","WebKit","Chrome","148.0.0.0","Windows","10.0","https://uencdihehs.cognition.run/?PROLIFIC_PID=69d2dbab29ed321c1b402b5e&STUDY_ID=6a270c2e609d6ae583c06396&STUDY_ID=6a270c2e609d6ae583c06396&SESSION_ID=6a2710ed9393086407134896?PROLIFIC_PID=69d2dbab29ed321c1b402b5e&SESSION_ID=6a2710ed9393086407134896?","en-US,en;q=0.9","69d2dbab29ed321c1b402b5e","6a270c2e609d6ae583c06396","6a2710ed9393086407134896?","69d2dbab29ed321c1b402b5e","6a270c2e609d6ae583c06396","6a2710ed9393086407134896?","30","[13,8,27,17,21,14,15,2,4,25,30,16,12,5,7,29,22,19,11,26,18,6,1,20,28,9,24,23,3,10]","[""U13"",""U8"",""P27"",""P17"",""P21"",""U14"",""U15"",""P2"",""U4"",""P25"",""U30"",""P16"",""U12"",""P5"",""P7"",""U29"",""P22"",""P19"",""U11"",""U26"",""P18"",""P6"",""P1"",""U20"",""P28"",""P9"",""P24"",""U23"",""P3"",""P10""]","[""P13"",""P8"",""U27"",""U17"",""U21"",""P14"",""P15"",""U2"",""P4"",""U25"",""P30"",""U16"",""P12"",""U5"",""U7"",""P29"",""U22"",""U19"",""P11"",""P26"",""U18"",""U6"",""U1"",""P20"",""U28"",""U9"",""U24"",""P23"",""U3"",""U10""]","3","3","0","0","0","0","","","","","","","","","","","","","","","","","","","","","","","","","","","","","","","","","","","",""
"","","","","","html-button-response","14","2.0.0","268486","91","1","2026-06-08 19:05:49","segmentation_norming_randomized_order_maxrun_attention_v4","71.7.130.172","Mozilla/5.0 (Windows NT 10.0; Win64; x64) AppleWebKit/537.36 (KHTML, like Gecko) Chrome/148.0.0.0 Safari/537.36","WebKit","Chrome","148.0.0.0","Windows","10.0","https://uencdihehs.cognition.run/?PROLIFIC_PID=69d2dbab29ed321c1b402b5e&STUDY_ID=6a270c2e609d6ae583c06396&STUDY_ID=6a270c2e609d6ae583c06396&SESSION_ID=6a2710ed9393086407134896?PROLIFIC_PID=69d2dbab29ed321c1b402b5e&SESSION_ID=6a2710ed9393086407134896?","en-US,en;q=0.9","69d2dbab29ed321c1b402b5e","6a270c2e609d6ae583c06396","6a2710ed9393086407134896?","69d2dbab29ed321c1b402b5e","6a270c2e609d6ae583c06396","6a2710ed9393086407134896?","30","[13,8,27,17,21,14,15,2,4,25,30,16,12,5,7,29,22,19,11,26,18,6,1,20,28,9,24,23,3,10]","[""U13"",""U8"",""P27"",""P17"",""P21"",""U14"",""U15"",""P2"",""U4"",""P25"",""U30"",""P16"",""U12"",""P5"",""P7"",""U29"",""P22"",""P19"",""U11"",""U26"",""P18"",""P6"",""P1"",""U20"",""P28"",""P9"",""P24"",""U23"",""P3"",""P10""]","[""P13"",""P8"",""U27"",""U17"",""U21"",""P14"",""P15"",""U2"",""P4"",""U25"",""P30"",""U16"",""P12"",""U5"",""U7"",""P29"",""U22"",""U19"",""P11"",""P26"",""U18"",""U6"",""U1"",""P20"",""U28"",""U9"",""U24"",""P23"",""U3"",""U10""]","3","3","0","0","0","0","","22525","Great! Hopefully you got an idea of what a meaningful unit is.<br><br>Remember that there is no right or wrong answer.<br><br>We just want to know which parts of the activity seem natural and meaningful to you.<br><br>Now the main experiment starts.<br><br>For each clip, while watching, remember to press the SPACE BAR whenever one <strong>smallest meaningful unit</strong> of activity ends and another begins.<br><br>","0","demo_feedback","","","","","","","","","","","","","","","","","","","","","","","","","","","","","","",""
"true","false","[]","[]","[]","preload","15","2.0.0","277563","91","1","2026-06-08 19:05:49","segmentation_norming_randomized_order_maxrun_attention_v4","71.7.130.172","Mozilla/5.0 (Windows NT 10.0; Win64; x64) AppleWebKit/537.36 (KHTML, like Gecko) Chrome/148.0.0.0 Safari/537.36","WebKit","Chrome","148.0.0.0","Windows","10.0","https://uencdihehs.cognition.run/?PROLIFIC_PID=69d2dbab29ed321c1b402b5e&STUDY_ID=6a270c2e609d6ae583c06396&STUDY_ID=6a270c2e609d6ae583c06396&SESSION_ID=6a2710ed9393086407134896?PROLIFIC_PID=69d2dbab29ed321c1b402b5e&SESSION_ID=6a2710ed9393086407134896?","en-US,en;q=0.9","69d2dbab29ed321c1b402b5e","6a270c2e609d6ae583c06396","6a2710ed9393086407134896?","69d2dbab29ed321c1b402b5e","6a270c2e609d6ae583c06396","6a2710ed9393086407134896?","30","[13,8,27,17,21,14,15,2,4,25,30,16,12,5,7,29,22,19,11,26,18,6,1,20,28,9,24,23,3,10]","[""U13"",""U8"",""P27"",""P17"",""P21"",""U14"",""U15"",""P2"",""U4"",""P25"",""U30"",""P16"",""U12"",""P5"",""P7"",""U29"",""P22"",""P19"",""U11"",""U26"",""P18"",""P6"",""P1"",""U20"",""P28"",""P9"",""P24"",""U23"",""P3"",""P10""]","[""P13"",""P8"",""U27"",""U17"",""U21"",""P14"",""P15"",""U2"",""P4"",""U25"",""P30"",""U16"",""P12"",""U5"",""U7"",""P29"",""U22"",""U19"",""P11"",""P26"",""U18"",""U6"",""U1"",""P20"",""U28"",""U9"",""U24"",""P23"",""U3"",""U10""]","3","3","0","0","0","0","","","","","","","","","","","","","","","","","","","","","","","","","","","","","","","","","","","",""
"","","","","","video-keyboard-response","16","2.0.0","307747","91","1","2026-06-08 19:05:49","segmentation_norming_randomized_order_maxrun_attention_v4","71.7.130.172","Mozilla/5.0 (Windows NT 10.0; Win64; x64) AppleWebKit/537.36 (KHTML, like Gecko) Chrome/148.0.0.0 Safari/537.36","WebKit","Chrome","148.0.0.0","Windows","10.0","https://uencdihehs.cognition.run/?PROLIFIC_PID=69d2dbab29ed321c1b402b5e&STUDY_ID=6a270c2e609d6ae583c06396&STUDY_ID=6a270c2e609d6ae583c06396&SESSION_ID=6a2710ed9393086407134896?PROLIFIC_PID=69d2dbab29ed321c1b402b5e&SESSION_ID=6a2710ed9393086407134896?","en-US,en;q=0.9","69d2dbab29ed321c1b402b5e","6a270c2e609d6ae583c06396","6a2710ed9393086407134896?","69d2dbab29ed321c1b402b5e","6a270c2e609d6ae583c06396","6a2710ed9393086407134896?","30","[13,8,27,17,21,14,15,2,4,25,30,16,12,5,7,29,22,19,11,26,18,6,1,20,28,9,24,23,3,10]","[""U13"",""U8"",""P27"",""P17"",""P21"",""U14"",""U15"",""P2"",""U4"",""P25"",""U30"",""P16"",""U12"",""P5"",""P7"",""U29"",""P22"",""P19"",""U11"",""U26"",""P18"",""P6"",""P1"",""U20"",""P28"",""P9"",""P24"",""U23"",""P3"",""P10""]","[""P13"",""P8"",""U27"",""U17"",""U21"",""P14"",""P15"",""U2"",""P4"",""U25"",""P30"",""U16"",""P12"",""U5"",""U7"",""P29"",""U22"",""U19"",""P11"",""P26"",""U18"",""U6"",""U1"",""P20"",""U28"",""U9"",""U24"",""P23"",""U3"",""U10""]","3","3","0","0","0","0","","null","[""gym_v2.mp4""]","null","segmentation_video","","","","","","","","","gym_v2.mp4","gym","Unpredictable","[2.123944,6.698847,9.897473,16.172885,21.375009,26.096718]","6","","U13","13","1","1","3.198626","false","false","false","","false","0","0","false","false","false","false",""
"","","","","","survey-multi-choice","19","2.0.0","314741","91","1","2026-06-08 19:05:49","segmentation_norming_randomized_order_maxrun_attention_v4","71.7.130.172","Mozilla/5.0 (Windows NT 10.0; Win64; x64) AppleWebKit/537.36 (KHTML, like Gecko) Chrome/148.0.0.0 Safari/537.36","WebKit","Chrome","148.0.0.0","Windows","10.0","https://uencdihehs.cognition.run/?PROLIFIC_PID=69d2dbab29ed321c1b402b5e&STUDY_ID=6a270c2e609d6ae583c06396&STUDY_ID=6a270c2e609d6ae583c06396&SESSION_ID=6a2710ed9393086407134896?PROLIFIC_PID=69d2dbab29ed321c1b402b5e&SESSION_ID=6a2710ed9393086407134896?","en-US,en;q=0.9","69d2dbab29ed321c1b402b5e","6a270c2e609d6ae583c06396","6a2710ed9393086407134896?","69d2dbab29ed321c1b402b5e","6a270c2e609d6ae583c06396","6a2710ed9393086407134896?","30","[13,8,27,17,21,14,15,2,4,25,30,16,12,5,7,29,22,19,11,26,18,6,1,20,28,9,24,23,3,10]","[""U13"",""U8"",""P27"",""P17"",""P21"",""U14"",""U15"",""P2"",""U4"",""P25"",""U30"",""P16"",""U12"",""P5"",""P7"",""U29"",""P22"",""P19"",""U11"",""U26"",""P18"",""P6"",""P1"",""U20"",""P28"",""P9"",""P24"",""U23"",""P3"",""P10""]","[""P13"",""P8"",""U27"",""U17"",""U21"",""P14"",""P15"",""U2"",""P4"",""U25"",""P30"",""U16"",""P12"",""U5"",""U7"",""P29"",""U22"",""U19"",""P11"",""P26"",""U18"",""U6"",""U1"",""P20"",""U28"",""U9"",""U24"",""P23"",""U3"",""U10""]","3","3","0","0","0","0","","6993","","{""confidence_rating"":""Neutral""}","confidence_question","[0]","","","","","","","","","gym","Unpredictable","","","","U13","13","1","1","","","","","","","","","","","","","Neutral"
"","","","","","video-keyboard-response","20","2.0.0","354287","91","1","2026-06-08 19:05:49","segmentation_norming_randomized_order_maxrun_attention_v4","71.7.130.172","Mozilla/5.0 (Windows NT 10.0; Win64; x64) AppleWebKit/537.36 (KHTML, like Gecko) Chrome/148.0.0.0 Safari/537.36","WebKit","Chrome","148.0.0.0","Windows","10.0","https://uencdihehs.cognition.run/?PROLIFIC_PID=69d2dbab29ed321c1b402b5e&STUDY_ID=6a270c2e609d6ae583c06396&STUDY_ID=6a270c2e609d6ae583c06396&SESSION_ID=6a2710ed9393086407134896?PROLIFIC_PID=69d2dbab29ed321c1b402b5e&SESSION_ID=6a2710ed9393086407134896?","en-US,en;q=0.9","69d2dbab29ed321c1b402b5e","6a270c2e609d6ae583c06396","6a2710ed9393086407134896?","69d2dbab29ed321c1b402b5e","6a270c2e609d6ae583c06396","6a2710ed9393086407134896?","30","[13,8,27,17,21,14,15,2,4,25,30,16,12,5,7,29,22,19,11,26,18,6,1,20,28,9,24,23,3,10]","[""U13"",""U8"",""P27"",""P17"",""P21"",""U14"",""U15"",""P2"",""U4"",""P25"",""U30"",""P16"",""U12"",""P5"",""P7"",""U29"",""P22"",""P19"",""U11"",""U26"",""P18"",""P6"",""P1"",""U20"",""P28"",""P9"",""P24"",""U23"",""P3"",""P10""]","[""P13"",""P8"",""U27"",""U17"",""U21"",""P14"",""P15"",""U2"",""P4"",""U25"",""P30"",""U16"",""P12"",""U5"",""U7"",""P29"",""U22"",""U19"",""P11"",""P26"",""U18"",""U6"",""U1"",""P20"",""U28"",""U9"",""U24"",""P23"",""U3"",""U10""]","3","3","0","0","0","0","","null","[""car_v2.mp4""]","null","segmentation_video","","","","","","","","","car_v2.mp4","car","Unpredictable","[6.426711,13.007864,20.25981,29.00768,36.018801]","5","","U8","8","1","2","6.581153","false","false","false","","false","0","0","false","false","false","false",""
"","","","","","survey-multi-choice","23","2.0.0","357280","91","1","2026-06-08 19:05:49","segmentation_norming_randomized_order_maxrun_attention_v4","71.7.130.172","Mozilla/5.0 (Windows NT 10.0; Win64; x64) AppleWebKit/537.36 (KHTML, like Gecko) Chrome/148.0.0.0 Safari/537.36","WebKit","Chrome","148.0.0.0","Windows","10.0","https://uencdihehs.cognition.run/?PROLIFIC_PID=69d2dbab29ed321c1b402b5e&STUDY_ID=6a270c2e609d6ae583c06396&STUDY_ID=6a270c2e609d6ae583c06396&SESSION_ID=6a2710ed9393086407134896?PROLIFIC_PID=69d2dbab29ed321c1b402b5e&SESSION_ID=6a2710ed9393086407134896?","en-US,en;q=0.9","69d2dbab29ed321c1b402b5e","6a270c2e609d6ae583c06396","6a2710ed9393086407134896?","69d2dbab29ed321c1b402b5e","6a270c2e609d6ae583c06396","6a2710ed9393086407134896?","30","[13,8,27,17,21,14,15,2,4,25,30,16,12,5,7,29,22,19,11,26,18,6,1,20,28,9,24,23,3,10]","[""U13"",""U8"",""P27"",""P17"",""P21"",""U14"",""U15"",""P2"",""U4"",""P25"",""U30"",""P16"",""U12"",""P5"",""P7"",""U29"",""P22"",""P19"",""U11"",""U26"",""P18"",""P6"",""P1"",""U20"",""P28"",""P9"",""P24"",""U23"",""P3"",""P10""]","[""P13"",""P8"",""U27"",""U17"",""U21"",""P14"",""P15"",""U2"",""P4"",""U25"",""P30"",""U16"",""P12"",""U5"",""U7"",""P29"",""U22"",""U19"",""P11"",""P26"",""U18"",""U6"",""U1"",""P20"",""U28"",""U9"",""U24"",""P23"",""U3"",""U10""]","3","3","0","0","0","0","","2992","","{""confidence_rating"":""Moderately confident""}","confidence_question","[0]","","","","","","","","","car","Unpredictable","","","","U8","8","1","2","","","","","","","","","","","","","Moderately confident"
"","","","","","video-keyboard-response","24","2.0.0","388286","91","1","2026-06-08 19:05:49","segmentation_norming_randomized_order_maxrun_attention_v4","71.7.130.172","Mozilla/5.0 (Windows NT 10.0; Win64; x64) AppleWebKit/537.36 (KHTML, like Gecko) Chrome/148.0.0.0 Safari/537.36","WebKit","Chrome","148.0.0.0","Windows","10.0","https://uencdihehs.cognition.run/?PROLIFIC_PID=69d2dbab29ed321c1b402b5e&STUDY_ID=6a270c2e609d6ae583c06396&STUDY_ID=6a270c2e609d6ae583c06396&SESSION_ID=6a2710ed9393086407134896?PROLIFIC_PID=69d2dbab29ed321c1b402b5e&SESSION_ID=6a2710ed9393086407134896?","en-US,en;q=0.9","69d2dbab29ed321c1b402b5e","6a270c2e609d6ae583c06396","6a2710ed9393086407134896?","69d2dbab29ed321c1b402b5e","6a270c2e609d6ae583c06396","6a2710ed9393086407134896?","30","[13,8,27,17,21,14,15,2,4,25,30,16,12,5,7,29,22,19,11,26,18,6,1,20,28,9,24,23,3,10]","[""U13"",""U8"",""P27"",""P17"",""P21"",""U14"",""U15"",""P2"",""U4"",""P25"",""U30"",""P16"",""U12"",""P5"",""P7"",""U29"",""P22"",""P19"",""U11"",""U26"",""P18"",""P6"",""P1"",""U20"",""P28"",""P9"",""P24"",""U23"",""P3"",""P10""]","[""P13"",""P8"",""U27"",""U17"",""U21"",""P14"",""P15"",""U2"",""P4"",""U25"",""P30"",""U16"",""P12"",""U5"",""U7"",""P29"",""U22"",""U19"",""P11"",""P26"",""U18"",""U6"",""U1"",""P20"",""U28"",""U9"",""U24"",""P23"",""U3"",""U10""]","3","3","0","0","0","0","","null","[""tea_v1.mp4""]","null","segmentation_video","","","","","","","","","tea_v1.mp4","tea","Predictable","[8.464469,11.863763,19.170324,24.830542,27.928539,30.25014]","6","","P27","27","1","3","2.3216009999999976","false","false","false","","false","0","0","false","false","false","false",""
"","","","","","survey-multi-choice","27","2.0.0","392019","91","1","2026-06-08 19:05:49","segmentation_norming_randomized_order_maxrun_attention_v4","71.7.130.172","Mozilla/5.0 (Windows NT 10.0; Win64; x64) AppleWebKit/537.36 (KHTML, like Gecko) Chrome/148.0.0.0 Safari/537.36","WebKit","Chrome","148.0.0.0","Windows","10.0","https://uencdihehs.cognition.run/?PROLIFIC_PID=69d2dbab29ed321c1b402b5e&STUDY_ID=6a270c2e609d6ae583c06396&STUDY_ID=6a270c2e609d6ae583c06396&SESSION_ID=6a2710ed9393086407134896?PROLIFIC_PID=69d2dbab29ed321c1b402b5e&SESSION_ID=6a2710ed9393086407134896?","en-US,en;q=0.9","69d2dbab29ed321c1b402b5e","6a270c2e609d6ae583c06396","6a2710ed9393086407134896?","69d2dbab29ed321c1b402b5e","6a270c2e609d6ae583c06396","6a2710ed9393086407134896?","30","[13,8,27,17,21,14,15,2,4,25,30,16,12,5,7,29,22,19,11,26,18,6,1,20,28,9,24,23,3,10]","[""U13"",""U8"",""P27"",""P17"",""P21"",""U14"",""U15"",""P2"",""U4"",""P25"",""U30"",""P16"",""U12"",""P5"",""P7"",""U29"",""P22"",""P19"",""U11"",""U26"",""P18"",""P6"",""P1"",""U20"",""P28"",""P9"",""P24"",""U23"",""P3"",""P10""]","[""P13"",""P8"",""U27"",""U17"",""U21"",""P14"",""P15"",""U2"",""P4"",""U25"",""P30"",""U16"",""P12"",""U5"",""U7"",""P29"",""U22"",""U19"",""P11"",""P26"",""U18"",""U6"",""U1"",""P20"",""U28"",""U9"",""U24"",""P23"",""U3"",""U10""]","3","3","0","0","0","0","","3731","","{""confidence_rating"":""Very confident""}","confidence_question","[0]","","","","","","","","","tea","Predictable","","","","P27","27","1","3","","","","","","","","","","","","","Very confident"
"","","","","","video-keyboard-response","28","2.0.0","430245","91","1","2026-06-08 19:05:49","segmentation_norming_randomized_order_maxrun_attention_v4","71.7.130.172","Mozilla/5.0 (Windows NT 10.0; Win64; x64) AppleWebKit/537.36 (KHTML, like Gecko) Chrome/148.0.0.0 Safari/537.36","WebKit","Chrome","148.0.0.0","Windows","10.0","https://uencdihehs.cognition.run/?PROLIFIC_PID=69d2dbab29ed321c1b402b5e&STUDY_ID=6a270c2e609d6ae583c06396&STUDY_ID=6a270c2e609d6ae583c06396&SESSION_ID=6a2710ed9393086407134896?PROLIFIC_PID=69d2dbab29ed321c1b402b5e&SESSION_ID=6a2710ed9393086407134896?","en-US,en;q=0.9","69d2dbab29ed321c1b402b5e","6a270c2e609d6ae583c06396","6a2710ed9393086407134896?","69d2dbab29ed321c1b402b5e","6a270c2e609d6ae583c06396","6a2710ed9393086407134896?","30","[13,8,27,17,21,14,15,2,4,25,30,16,12,5,7,29,22,19,11,26,18,6,1,20,28,9,24,23,3,10]","[""U13"",""U8"",""P27"",""P17"",""P21"",""U14"",""U15"",""P2"",""U4"",""P25"",""U30"",""P16"",""U12"",""P5"",""P7"",""U29"",""P22"",""P19"",""U11"",""U26"",""P18"",""P6"",""P1"",""U20"",""P28"",""P9"",""P24"",""U23"",""P3"",""P10""]","[""P13"",""P8"",""U27"",""U17"",""U21"",""P14"",""P15"",""U2"",""P4"",""U25"",""P30"",""U16"",""P12"",""U5"",""U7"",""P29"",""U22"",""U19"",""P11"",""P26"",""U18"",""U6"",""U1"",""P20"",""U28"",""U9"",""U24"",""P23"",""U3"",""U10""]","3","3","0","0","0","0","","null","[""music_v1.mp4""]","null","segmentation_video","","","","","","","","","music_v1.mp4","music","Predictable","[12.284431,20.643578,25.875847,34.527044,37.635558]","5","","P17","17","1","4","3.1085140000000067","false","false","false","","false","0","0","false","false","false","false",""
"","","","","","survey-multi-choice","31","2.0.0","432869","91","1","2026-06-08 19:05:49","segmentation_norming_randomized_order_maxrun_attention_v4","71.7.130.172","Mozilla/5.0 (Windows NT 10.0; Win64; x64) AppleWebKit/537.36 (KHTML, like Gecko) Chrome/148.0.0.0 Safari/537.36","WebKit","Chrome","148.0.0.0","Windows","10.0","https://uencdihehs.cognition.run/?PROLIFIC_PID=69d2dbab29ed321c1b402b5e&STUDY_ID=6a270c2e609d6ae583c06396&STUDY_ID=6a270c2e609d6ae583c06396&SESSION_ID=6a2710ed9393086407134896?PROLIFIC_PID=69d2dbab29ed321c1b402b5e&SESSION_ID=6a2710ed9393086407134896?","en-US,en;q=0.9","69d2dbab29ed321c1b402b5e","6a270c2e609d6ae583c06396","6a2710ed9393086407134896?","69d2dbab29ed321c1b402b5e","6a270c2e609d6ae583c06396","6a2710ed9393086407134896?","30","[13,8,27,17,21,14,15,2,4,25,30,16,12,5,7,29,22,19,11,26,18,6,1,20,28,9,24,23,3,10]","[""U13"",""U8"",""P27"",""P17"",""P21"",""U14"",""U15"",""P2"",""U4"",""P25"",""U30"",""P16"",""U12"",""P5"",""P7"",""U29"",""P22"",""P19"",""U11"",""U26"",""P18"",""P6"",""P1"",""U20"",""P28"",""P9"",""P24"",""U23"",""P3"",""P10""]","[""P13"",""P8"",""U27"",""U17"",""U21"",""P14"",""P15"",""U2"",""P4"",""U25"",""P30"",""U16"",""P12"",""U5"",""U7"",""P29"",""U22"",""U19"",""P11"",""P26"",""U18"",""U6"",""U1"",""P20"",""U28"",""U9"",""U24"",""P23"",""U3"",""U10""]","3","3","0","0","0","0","","2623","","{""confidence_rating"":""Moderately confident""}","confidence_question","[0]","","","","","","","","","music","Predictable","","","","P17","17","1","4","","","","","","","","","","","","","Moderately confident"
"","","","","","video-keyboard-response","32","2.0.0","477024","91","1","2026-06-08 19:05:49","segmentation_norming_randomized_order_maxrun_attention_v4","71.7.130.172","Mozilla/5.0 (Windows NT 10.0; Win64; x64) AppleWebKit/537.36 (KHTML, like Gecko) Chrome/148.0.0.0 Safari/537.36","WebKit","Chrome","148.0.0.0","Windows","10.0","https://uencdihehs.cognition.run/?PROLIFIC_PID=69d2dbab29ed321c1b402b5e&STUDY_ID=6a270c2e609d6ae583c06396&STUDY_ID=6a270c2e609d6ae583c06396&SESSION_ID=6a2710ed9393086407134896?PROLIFIC_PID=69d2dbab29ed321c1b402b5e&SESSION_ID=6a2710ed9393086407134896?","en-US,en;q=0.9","69d2dbab29ed321c1b402b5e","6a270c2e609d6ae583c06396","6a2710ed9393086407134896?","69d2dbab29ed321c1b402b5e","6a270c2e609d6ae583c06396","6a2710ed9393086407134896?","30","[13,8,27,17,21,14,15,2,4,25,30,16,12,5,7,29,22,19,11,26,18,6,1,20,28,9,24,23,3,10]","[""U13"",""U8"",""P27"",""P17"",""P21"",""U14"",""U15"",""P2"",""U4"",""P25"",""U30"",""P16"",""U12"",""P5"",""P7"",""U29"",""P22"",""P19"",""U11"",""U26"",""P18"",""P6"",""P1"",""U20"",""P28"",""P9"",""P24"",""U23"",""P3"",""P10""]","[""P13"",""P8"",""U27"",""U17"",""U21"",""P14"",""P15"",""U2"",""P4"",""U25"",""P30"",""U16"",""P12"",""U5"",""U7"",""P29"",""U22"",""U19"",""P11"",""P26"",""U18"",""U6"",""U1"",""P20"",""U28"",""U9"",""U24"",""P23"",""U3"",""U10""]","3","3","0","0","0","0","","null","[""printer_v1.mp4""]","null","segmentation_video","","","","","","","","","printer_v1.mp4","printer","Predictable","[5.27919,9.772866,14.931062,21.49695,26.114205,32.496889,36.421028,42.88516]","8","","P21","21","1","5","3.9241389999999967","false","false","false","","false","0","0","false","false","false","false",""
"","","","","","survey-multi-choice","35","2.0.0","481826","91","1","2026-06-08 19:05:49","segmentation_norming_randomized_order_maxrun_attention_v4","71.7.130.172","Mozilla/5.0 (Windows NT 10.0; Win64; x64) AppleWebKit/537.36 (KHTML, like Gecko) Chrome/148.0.0.0 Safari/537.36","WebKit","Chrome","148.0.0.0","Windows","10.0","https://uencdihehs.cognition.run/?PROLIFIC_PID=69d2dbab29ed321c1b402b5e&STUDY_ID=6a270c2e609d6ae583c06396&STUDY_ID=6a270c2e609d6ae583c06396&SESSION_ID=6a2710ed9393086407134896?PROLIFIC_PID=69d2dbab29ed321c1b402b5e&SESSION_ID=6a2710ed9393086407134896?","en-US,en;q=0.9","69d2dbab29ed321c1b402b5e","6a270c2e609d6ae583c06396","6a2710ed9393086407134896?","69d2dbab29ed321c1b402b5e","6a270c2e609d6ae583c06396","6a2710ed9393086407134896?","30","[13,8,27,17,21,14,15,2,4,25,30,16,12,5,7,29,22,19,11,26,18,6,1,20,28,9,24,23,3,10]","[""U13"",""U8"",""P27"",""P17"",""P21"",""U14"",""U15"",""P2"",""U4"",""P25"",""U30"",""P16"",""U12"",""P5"",""P7"",""U29"",""P22"",""P19"",""U11"",""U26"",""P18"",""P6"",""P1"",""U20"",""P28"",""P9"",""P24"",""U23"",""P3"",""P10""]","[""P13"",""P8"",""U27"",""U17"",""U21"",""P14"",""P15"",""U2"",""P4"",""U25"",""P30"",""U16"",""P12"",""U5"",""U7"",""P29"",""U22"",""U19"",""P11"",""P26"",""U18"",""U6"",""U1"",""P20"",""U28"",""U9"",""U24"",""P23"",""U3"",""U10""]","3","3","0","0","0","0","","4801","","{""confidence_rating"":""Neutral""}","confidence_question","[0]","","","","","","","","","printer","Predictable","","","","P21","21","1","5","","","","","","","","","","","","","Neutral"
"","","","","","video-keyboard-response","36","2.0.0","513128","91","1","2026-06-08 19:05:49","segmentation_norming_randomized_order_maxrun_attention_v4","71.7.130.172","Mozilla/5.0 (Windows NT 10.0; Win64; x64) AppleWebKit/537.36 (KHTML, like Gecko) Chrome/148.0.0.0 Safari/537.36","WebKit","Chrome","148.0.0.0","Windows","10.0","https://uencdihehs.cognition.run/?PROLIFIC_PID=69d2dbab29ed321c1b402b5e&STUDY_ID=6a270c2e609d6ae583c06396&STUDY_ID=6a270c2e609d6ae583c06396&SESSION_ID=6a2710ed9393086407134896?PROLIFIC_PID=69d2dbab29ed321c1b402b5e&SESSION_ID=6a2710ed9393086407134896?","en-US,en;q=0.9","69d2dbab29ed321c1b402b5e","6a270c2e609d6ae583c06396","6a2710ed9393086407134896?","69d2dbab29ed321c1b402b5e","6a270c2e609d6ae583c06396","6a2710ed9393086407134896?","30","[13,8,27,17,21,14,15,2,4,25,30,16,12,5,7,29,22,19,11,26,18,6,1,20,28,9,24,23,3,10]","[""U13"",""U8"",""P27"",""P17"",""P21"",""U14"",""U15"",""P2"",""U4"",""P25"",""U30"",""P16"",""U12"",""P5"",""P7"",""U29"",""P22"",""P19"",""U11"",""U26"",""P18"",""P6"",""P1"",""U20"",""P28"",""P9"",""P24"",""U23"",""P3"",""P10""]","[""P13"",""P8"",""U27"",""U17"",""U21"",""P14"",""P15"",""U2"",""P4"",""U25"",""P30"",""U16"",""P12"",""U5"",""U7"",""P29"",""U22"",""U19"",""P11"",""P26"",""U18"",""U6"",""U1"",""P20"",""U28"",""U9"",""U24"",""P23"",""U3"",""U10""]","3","3","0","0","0","0","","null","[""lamp_v2.mp4""]","null","segmentation_video","","","","","","","","","lamp_v2.mp4","lamp","Unpredictable","[3.965634,6.894111,11.065634,22.793095,28.148258]","5","","U14","14","1","6","2.9284769999999996","false","false","false","","false","0","0","false","false","false","false",""
"","","","","","survey-multi-choice","39","2.0.0","515898","91","1","2026-06-08 19:05:49","segmentation_norming_randomized_order_maxrun_attention_v4","71.7.130.172","Mozilla/5.0 (Windows NT 10.0; Win64; x64) AppleWebKit/537.36 (KHTML, like Gecko) Chrome/148.0.0.0 Safari/537.36","WebKit","Chrome","148.0.0.0","Windows","10.0","https://uencdihehs.cognition.run/?PROLIFIC_PID=69d2dbab29ed321c1b402b5e&STUDY_ID=6a270c2e609d6ae583c06396&STUDY_ID=6a270c2e609d6ae583c06396&SESSION_ID=6a2710ed9393086407134896?PROLIFIC_PID=69d2dbab29ed321c1b402b5e&SESSION_ID=6a2710ed9393086407134896?","en-US,en;q=0.9","69d2dbab29ed321c1b402b5e","6a270c2e609d6ae583c06396","6a2710ed9393086407134896?","69d2dbab29ed321c1b402b5e","6a270c2e609d6ae583c06396","6a2710ed9393086407134896?","30","[13,8,27,17,21,14,15,2,4,25,30,16,12,5,7,29,22,19,11,26,18,6,1,20,28,9,24,23,3,10]","[""U13"",""U8"",""P27"",""P17"",""P21"",""U14"",""U15"",""P2"",""U4"",""P25"",""U30"",""P16"",""U12"",""P5"",""P7"",""U29"",""P22"",""P19"",""U11"",""U26"",""P18"",""P6"",""P1"",""U20"",""P28"",""P9"",""P24"",""U23"",""P3"",""P10""]","[""P13"",""P8"",""U27"",""U17"",""U21"",""P14"",""P15"",""U2"",""P4"",""U25"",""P30"",""U16"",""P12"",""U5"",""U7"",""P29"",""U22"",""U19"",""P11"",""P26"",""U18"",""U6"",""U1"",""P20"",""U28"",""U9"",""U24"",""P23"",""U3"",""U10""]","3","3","0","0","0","0","","2769","","{""confidence_rating"":""Moderately confident""}","confidence_question","[0]","","","","","","","","","lamp","Unpredictable","","","","U14","14","1","6","","","","","","","","","","","","","Moderately confident"
"","","","","","video-keyboard-response","40","2.0.0","546867","91","1","2026-06-08 19:05:49","segmentation_norming_randomized_order_maxrun_attention_v4","71.7.130.172","Mozilla/5.0 (Windows NT 10.0; Win64; x64) AppleWebKit/537.36 (KHTML, like Gecko) Chrome/148.0.0.0 Safari/537.36","WebKit","Chrome","148.0.0.0","Windows","10.0","https://uencdihehs.cognition.run/?PROLIFIC_PID=69d2dbab29ed321c1b402b5e&STUDY_ID=6a270c2e609d6ae583c06396&STUDY_ID=6a270c2e609d6ae583c06396&SESSION_ID=6a2710ed9393086407134896?PROLIFIC_PID=69d2dbab29ed321c1b402b5e&SESSION_ID=6a2710ed9393086407134896?","en-US,en;q=0.9","69d2dbab29ed321c1b402b5e","6a270c2e609d6ae583c06396","6a2710ed9393086407134896?","69d2dbab29ed321c1b402b5e","6a270c2e609d6ae583c06396","6a2710ed9393086407134896?","30","[13,8,27,17,21,14,15,2,4,25,30,16,12,5,7,29,22,19,11,26,18,6,1,20,28,9,24,23,3,10]","[""U13"",""U8"",""P27"",""P17"",""P21"",""U14"",""U15"",""P2"",""U4"",""P25"",""U30"",""P16"",""U12"",""P5"",""P7"",""U29"",""P22"",""P19"",""U11"",""U26"",""P18"",""P6"",""P1"",""U20"",""P28"",""P9"",""P24"",""U23"",""P3"",""P10""]","[""P13"",""P8"",""U27"",""U17"",""U21"",""P14"",""P15"",""U2"",""P4"",""U25"",""P30"",""U16"",""P12"",""U5"",""U7"",""P29"",""U22"",""U19"",""P11"",""P26"",""U18"",""U6"",""U1"",""P20"",""U28"",""U9"",""U24"",""P23"",""U3"",""U10""]","3","3","0","0","0","0","","null","[""laundry_v2.mp4""]","null","segmentation_video","","","","","","","","","laundry_v2.mp4","laundry","Unpredictable","[13.944897,25.468143,27.236353]","3","","U15","15","1","7","1.7682099999999998","false","false","false","","false","0","0","false","false","false","false",""
"","","","","","survey-multi-choice","43","2.0.0","549164","91","1","2026-06-08 19:05:49","segmentation_norming_randomized_order_maxrun_attention_v4","71.7.130.172","Mozilla/5.0 (Windows NT 10.0; Win64; x64) AppleWebKit/537.36 (KHTML, like Gecko) Chrome/148.0.0.0 Safari/537.36","WebKit","Chrome","148.0.0.0","Windows","10.0","https://uencdihehs.cognition.run/?PROLIFIC_PID=69d2dbab29ed321c1b402b5e&STUDY_ID=6a270c2e609d6ae583c06396&STUDY_ID=6a270c2e609d6ae583c06396&SESSION_ID=6a2710ed9393086407134896?PROLIFIC_PID=69d2dbab29ed321c1b402b5e&SESSION_ID=6a2710ed9393086407134896?","en-US,en;q=0.9","69d2dbab29ed321c1b402b5e","6a270c2e609d6ae583c06396","6a2710ed9393086407134896?","69d2dbab29ed321c1b402b5e","6a270c2e609d6ae583c06396","6a2710ed9393086407134896?","30","[13,8,27,17,21,14,15,2,4,25,30,16,12,5,7,29,22,19,11,26,18,6,1,20,28,9,24,23,3,10]","[""U13"",""U8"",""P27"",""P17"",""P21"",""U14"",""U15"",""P2"",""U4"",""P25"",""U30"",""P16"",""U12"",""P5"",""P7"",""U29"",""P22"",""P19"",""U11"",""U26"",""P18"",""P6"",""P1"",""U20"",""P28"",""P9"",""P24"",""U23"",""P3"",""P10""]","[""P13"",""P8"",""U27"",""U17"",""U21"",""P14"",""P15"",""U2"",""P4"",""U25"",""P30"",""U16"",""P12"",""U5"",""U7"",""P29"",""U22"",""U19"",""P11"",""P26"",""U18"",""U6"",""U1"",""P20"",""U28"",""U9"",""U24"",""P23"",""U3"",""U10""]","3","3","0","0","0","0","","2296","","{""confidence_rating"":""Moderately confident""}","confidence_question","[0]","","","","","","","","","laundry","Unpredictable","","","","U15","15","1","7","","","","","","","","","","","","","Moderately confident"
"","","","","","video-keyboard-response","44","2.0.0","577027","91","1","2026-06-08 19:05:49","segmentation_norming_randomized_order_maxrun_attention_v4","71.7.130.172","Mozilla/5.0 (Windows NT 10.0; Win64; x64) AppleWebKit/537.36 (KHTML, like Gecko) Chrome/148.0.0.0 Safari/537.36","WebKit","Chrome","148.0.0.0","Windows","10.0","https://uencdihehs.cognition.run/?PROLIFIC_PID=69d2dbab29ed321c1b402b5e&STUDY_ID=6a270c2e609d6ae583c06396&STUDY_ID=6a270c2e609d6ae583c06396&SESSION_ID=6a2710ed9393086407134896?PROLIFIC_PID=69d2dbab29ed321c1b402b5e&SESSION_ID=6a2710ed9393086407134896?","en-US,en;q=0.9","69d2dbab29ed321c1b402b5e","6a270c2e609d6ae583c06396","6a2710ed9393086407134896?","69d2dbab29ed321c1b402b5e","6a270c2e609d6ae583c06396","6a2710ed9393086407134896?","30","[13,8,27,17,21,14,15,2,4,25,30,16,12,5,7,29,22,19,11,26,18,6,1,20,28,9,24,23,3,10]","[""U13"",""U8"",""P27"",""P17"",""P21"",""U14"",""U15"",""P2"",""U4"",""P25"",""U30"",""P16"",""U12"",""P5"",""P7"",""U29"",""P22"",""P19"",""U11"",""U26"",""P18"",""P6"",""P1"",""U20"",""P28"",""P9"",""P24"",""U23"",""P3"",""P10""]","[""P13"",""P8"",""U27"",""U17"",""U21"",""P14"",""P15"",""U2"",""P4"",""U25"",""P30"",""U16"",""P12"",""U5"",""U7"",""P29"",""U22"",""U19"",""P11"",""P26"",""U18"",""U6"",""U1"",""P20"",""U28"",""U9"",""U24"",""P23"",""U3"",""U10""]","3","3","0","0","0","0","","null","[""balcony_v1.mp4""]","null","segmentation_video","","","","","","","","","balcony_v1.mp4","balcony","Predictable","[1.728283,7.30171,18.808075,21.912242,27.151197]","5","","P2","2","1","8","3.1041670000000003","false","false","false","","false","0","0","false","false","false","false",""
"","","","","","survey-multi-choice","47","2.0.0","579912","91","1","2026-06-08 19:05:49","segmentation_norming_randomized_order_maxrun_attention_v4","71.7.130.172","Mozilla/5.0 (Windows NT 10.0; Win64; x64) AppleWebKit/537.36 (KHTML, like Gecko) Chrome/148.0.0.0 Safari/537.36","WebKit","Chrome","148.0.0.0","Windows","10.0","https://uencdihehs.cognition.run/?PROLIFIC_PID=69d2dbab29ed321c1b402b5e&STUDY_ID=6a270c2e609d6ae583c06396&STUDY_ID=6a270c2e609d6ae583c06396&SESSION_ID=6a2710ed9393086407134896?PROLIFIC_PID=69d2dbab29ed321c1b402b5e&SESSION_ID=6a2710ed9393086407134896?","en-US,en;q=0.9","69d2dbab29ed321c1b402b5e","6a270c2e609d6ae583c06396","6a2710ed9393086407134896?","69d2dbab29ed321c1b402b5e","6a270c2e609d6ae583c06396","6a2710ed9393086407134896?","30","[13,8,27,17,21,14,15,2,4,25,30,16,12,5,7,29,22,19,11,26,18,6,1,20,28,9,24,23,3,10]","[""U13"",""U8"",""P27"",""P17"",""P21"",""U14"",""U15"",""P2"",""U4"",""P25"",""U30"",""P16"",""U12"",""P5"",""P7"",""U29"",""P22"",""P19"",""U11"",""U26"",""P18"",""P6"",""P1"",""U20"",""P28"",""P9"",""P24"",""U23"",""P3"",""P10""]","[""P13"",""P8"",""U27"",""U17"",""U21"",""P14"",""P15"",""U2"",""P4"",""U25"",""P30"",""U16"",""P12"",""U5"",""U7"",""P29"",""U22"",""U19"",""P11"",""P26"",""U18"",""U6"",""U1"",""P20"",""U28"",""U9"",""U24"",""P23"",""U3"",""U10""]","3","3","0","0","0","0","","2884","","{""confidence_rating"":""Moderately confident""}","confidence_question","[0]","","","","","","","","","balcony","Predictable","","","","P2","2","1","8","","","","","","","","","","","","","Moderately confident"
"","","","","","video-keyboard-response","48","2.0.0","615126","91","1","2026-06-08 19:05:49","segmentation_norming_randomized_order_maxrun_attention_v4","71.7.130.172","Mozilla/5.0 (Windows NT 10.0; Win64; x64) AppleWebKit/537.36 (KHTML, like Gecko) Chrome/148.0.0.0 Safari/537.36","WebKit","Chrome","148.0.0.0","Windows","10.0","https://uencdihehs.cognition.run/?PROLIFIC_PID=69d2dbab29ed321c1b402b5e&STUDY_ID=6a270c2e609d6ae583c06396&STUDY_ID=6a270c2e609d6ae583c06396&SESSION_ID=6a2710ed9393086407134896?PROLIFIC_PID=69d2dbab29ed321c1b402b5e&SESSION_ID=6a2710ed9393086407134896?","en-US,en;q=0.9","69d2dbab29ed321c1b402b5e","6a270c2e609d6ae583c06396","6a2710ed9393086407134896?","69d2dbab29ed321c1b402b5e","6a270c2e609d6ae583c06396","6a2710ed9393086407134896?","30","[13,8,27,17,21,14,15,2,4,25,30,16,12,5,7,29,22,19,11,26,18,6,1,20,28,9,24,23,3,10]","[""U13"",""U8"",""P27"",""P17"",""P21"",""U14"",""U15"",""P2"",""U4"",""P25"",""U30"",""P16"",""U12"",""P5"",""P7"",""U29"",""P22"",""P19"",""U11"",""U26"",""P18"",""P6"",""P1"",""U20"",""P28"",""P9"",""P24"",""U23"",""P3"",""P10""]","[""P13"",""P8"",""U27"",""U17"",""U21"",""P14"",""P15"",""U2"",""P4"",""U25"",""P30"",""U16"",""P12"",""U5"",""U7"",""P29"",""U22"",""U19"",""P11"",""P26"",""U18"",""U6"",""U1"",""P20"",""U28"",""U9"",""U24"",""P23"",""U3"",""U10""]","3","3","0","0","0","0","","null","[""bathroom_v2.mp4""]","null","segmentation_video","","","","","","","","","bathroom_v2.mp4","bathroom","Unpredictable","[4.040041,6.690088,9.001609,15.748791,22.073225,25.882303,27.863013,33.204045]","8","","U4","4","1","9","1.9807099999999984","false","false","false","","false","0","0","false","false","false","false",""
"","","","","","survey-multi-choice","51","2.0.0","617586","91","1","2026-06-08 19:05:49","segmentation_norming_randomized_order_maxrun_attention_v4","71.7.130.172","Mozilla/5.0 (Windows NT 10.0; Win64; x64) AppleWebKit/537.36 (KHTML, like Gecko) Chrome/148.0.0.0 Safari/537.36","WebKit","Chrome","148.0.0.0","Windows","10.0","https://uencdihehs.cognition.run/?PROLIFIC_PID=69d2dbab29ed321c1b402b5e&STUDY_ID=6a270c2e609d6ae583c06396&STUDY_ID=6a270c2e609d6ae583c06396&SESSION_ID=6a2710ed9393086407134896?PROLIFIC_PID=69d2dbab29ed321c1b402b5e&SESSION_ID=6a2710ed9393086407134896?","en-US,en;q=0.9","69d2dbab29ed321c1b402b5e","6a270c2e609d6ae583c06396","6a2710ed9393086407134896?","69d2dbab29ed321c1b402b5e","6a270c2e609d6ae583c06396","6a2710ed9393086407134896?","30","[13,8,27,17,21,14,15,2,4,25,30,16,12,5,7,29,22,19,11,26,18,6,1,20,28,9,24,23,3,10]","[""U13"",""U8"",""P27"",""P17"",""P21"",""U14"",""U15"",""P2"",""U4"",""P25"",""U30"",""P16"",""U12"",""P5"",""P7"",""U29"",""P22"",""P19"",""U11"",""U26"",""P18"",""P6"",""P1"",""U20"",""P28"",""P9"",""P24"",""U23"",""P3"",""P10""]","[""P13"",""P8"",""U27"",""U17"",""U21"",""P14"",""P15"",""U2"",""P4"",""U25"",""P30"",""U16"",""P12"",""U5"",""U7"",""P29"",""U22"",""U19"",""P11"",""P26"",""U18"",""U6"",""U1"",""P20"",""U28"",""U9"",""U24"",""P23"",""U3"",""U10""]","3","3","0","0","0","0","","2459","","{""confidence_rating"":""Moderately confident""}","confidence_question","[0]","","","","","","","","","bathroom","Unpredictable","","","","U4","4","1","9","","","","","","","","","","","","","Moderately confident"
"","","","","","video-keyboard-response","52","2.0.0","644845","91","1","2026-06-08 19:05:49","segmentation_norming_randomized_order_maxrun_attention_v4","71.7.130.172","Mozilla/5.0 (Windows NT 10.0; Win64; x64) AppleWebKit/537.36 (KHTML, like Gecko) Chrome/148.0.0.0 Safari/537.36","WebKit","Chrome","148.0.0.0","Windows","10.0","https://uencdihehs.cognition.run/?PROLIFIC_PID=69d2dbab29ed321c1b402b5e&STUDY_ID=6a270c2e609d6ae583c06396&STUDY_ID=6a270c2e609d6ae583c06396&SESSION_ID=6a2710ed9393086407134896?PROLIFIC_PID=69d2dbab29ed321c1b402b5e&SESSION_ID=6a2710ed9393086407134896?","en-US,en;q=0.9","69d2dbab29ed321c1b402b5e","6a270c2e609d6ae583c06396","6a2710ed9393086407134896?","69d2dbab29ed321c1b402b5e","6a270c2e609d6ae583c06396","6a2710ed9393086407134896?","30","[13,8,27,17,21,14,15,2,4,25,30,16,12,5,7,29,22,19,11,26,18,6,1,20,28,9,24,23,3,10]","[""U13"",""U8"",""P27"",""P17"",""P21"",""U14"",""U15"",""P2"",""U4"",""P25"",""U30"",""P16"",""U12"",""P5"",""P7"",""U29"",""P22"",""P19"",""U11"",""U26"",""P18"",""P6"",""P1"",""U20"",""P28"",""P9"",""P24"",""U23"",""P3"",""P10""]","[""P13"",""P8"",""U27"",""U17"",""U21"",""P14"",""P15"",""U2"",""P4"",""U25"",""P30"",""U16"",""P12"",""U5"",""U7"",""P29"",""U22"",""U19"",""P11"",""P26"",""U18"",""U6"",""U1"",""P20"",""U28"",""U9"",""U24"",""P23"",""U3"",""U10""]","3","3","0","0","0","0","","null","[""suitcase_v1.mp4""]","null","segmentation_video","","","","","","","","","suitcase_v1.mp4","suitcase","Predictable","[7.162304,9.737816,13.782138,17.994964,22.339667]","5","","P25","25","1","10","2.5755120000000007","false","false","false","","false","0","0","false","false","false","false",""
"","","","","","survey-multi-choice","55","2.0.0","647473","91","1","2026-06-08 19:05:49","segmentation_norming_randomized_order_maxrun_attention_v4","71.7.130.172","Mozilla/5.0 (Windows NT 10.0; Win64; x64) AppleWebKit/537.36 (KHTML, like Gecko) Chrome/148.0.0.0 Safari/537.36","WebKit","Chrome","148.0.0.0","Windows","10.0","https://uencdihehs.cognition.run/?PROLIFIC_PID=69d2dbab29ed321c1b402b5e&STUDY_ID=6a270c2e609d6ae583c06396&STUDY_ID=6a270c2e609d6ae583c06396&SESSION_ID=6a2710ed9393086407134896?PROLIFIC_PID=69d2dbab29ed321c1b402b5e&SESSION_ID=6a2710ed9393086407134896?","en-US,en;q=0.9","69d2dbab29ed321c1b402b5e","6a270c2e609d6ae583c06396","6a2710ed9393086407134896?","69d2dbab29ed321c1b402b5e","6a270c2e609d6ae583c06396","6a2710ed9393086407134896?","30","[13,8,27,17,21,14,15,2,4,25,30,16,12,5,7,29,22,19,11,26,18,6,1,20,28,9,24,23,3,10]","[""U13"",""U8"",""P27"",""P17"",""P21"",""U14"",""U15"",""P2"",""U4"",""P25"",""U30"",""P16"",""U12"",""P5"",""P7"",""U29"",""P22"",""P19"",""U11"",""U26"",""P18"",""P6"",""P1"",""U20"",""P28"",""P9"",""P24"",""U23"",""P3"",""P10""]","[""P13"",""P8"",""U27"",""U17"",""U21"",""P14"",""P15"",""U2"",""P4"",""U25"",""P30"",""U16"",""P12"",""U5"",""U7"",""P29"",""U22"",""U19"",""P11"",""P26"",""U18"",""U6"",""U1"",""P20"",""U28"",""U9"",""U24"",""P23"",""U3"",""U10""]","3","3","0","0","0","0","","2627","","{""confidence_rating"":""Moderately confident""}","confidence_question","[0]","","","","","","","","","suitcase","Predictable","","","","P25","25","1","10","","","","","","","","","","","","","Moderately confident"
"","","","","","video-keyboard-response","56","2.0.0","684144","91","1","2026-06-08 19:05:49","segmentation_norming_randomized_order_maxrun_attention_v4","71.7.130.172","Mozilla/5.0 (Windows NT 10.0; Win64; x64) AppleWebKit/537.36 (KHTML, like Gecko) Chrome/148.0.0.0 Safari/537.36","WebKit","Chrome","148.0.0.0","Windows","10.0","https://uencdihehs.cognition.run/?PROLIFIC_PID=69d2dbab29ed321c1b402b5e&STUDY_ID=6a270c2e609d6ae583c06396&STUDY_ID=6a270c2e609d6ae583c06396&SESSION_ID=6a2710ed9393086407134896?PROLIFIC_PID=69d2dbab29ed321c1b402b5e&SESSION_ID=6a2710ed9393086407134896?","en-US,en;q=0.9","69d2dbab29ed321c1b402b5e","6a270c2e609d6ae583c06396","6a2710ed9393086407134896?","69d2dbab29ed321c1b402b5e","6a270c2e609d6ae583c06396","6a2710ed9393086407134896?","30","[13,8,27,17,21,14,15,2,4,25,30,16,12,5,7,29,22,19,11,26,18,6,1,20,28,9,24,23,3,10]","[""U13"",""U8"",""P27"",""P17"",""P21"",""U14"",""U15"",""P2"",""U4"",""P25"",""U30"",""P16"",""U12"",""P5"",""P7"",""U29"",""P22"",""P19"",""U11"",""U26"",""P18"",""P6"",""P1"",""U20"",""P28"",""P9"",""P24"",""U23"",""P3"",""P10""]","[""P13"",""P8"",""U27"",""U17"",""U21"",""P14"",""P15"",""U2"",""P4"",""U25"",""P30"",""U16"",""P12"",""U5"",""U7"",""P29"",""U22"",""U19"",""P11"",""P26"",""U18"",""U6"",""U1"",""P20"",""U28"",""U9"",""U24"",""P23"",""U3"",""U10""]","3","3","0","0","0","0","","null","[""whiteboard_v2.mp4""]","null","segmentation_video","","","","","","","","","whiteboard_v2.mp4","whiteboard","Unpredictable","[12.821608,17.058468,23.571292,26.894988]","4","","U30","30","1","11","3.3236960000000018","false","false","false","","false","0","0","false","false","false","false",""
"","","","","","survey-multi-choice","59","2.0.0","686710","91","1","2026-06-08 19:05:49","segmentation_norming_randomized_order_maxrun_attention_v4","71.7.130.172","Mozilla/5.0 (Windows NT 10.0; Win64; x64) AppleWebKit/537.36 (KHTML, like Gecko) Chrome/148.0.0.0 Safari/537.36","WebKit","Chrome","148.0.0.0","Windows","10.0","https://uencdihehs.cognition.run/?PROLIFIC_PID=69d2dbab29ed321c1b402b5e&STUDY_ID=6a270c2e609d6ae583c06396&STUDY_ID=6a270c2e609d6ae583c06396&SESSION_ID=6a2710ed9393086407134896?PROLIFIC_PID=69d2dbab29ed321c1b402b5e&SESSION_ID=6a2710ed9393086407134896?","en-US,en;q=0.9","69d2dbab29ed321c1b402b5e","6a270c2e609d6ae583c06396","6a2710ed9393086407134896?","69d2dbab29ed321c1b402b5e","6a270c2e609d6ae583c06396","6a2710ed9393086407134896?","30","[13,8,27,17,21,14,15,2,4,25,30,16,12,5,7,29,22,19,11,26,18,6,1,20,28,9,24,23,3,10]","[""U13"",""U8"",""P27"",""P17"",""P21"",""U14"",""U15"",""P2"",""U4"",""P25"",""U30"",""P16"",""U12"",""P5"",""P7"",""U29"",""P22"",""P19"",""U11"",""U26"",""P18"",""P6"",""P1"",""U20"",""P28"",""P9"",""P24"",""U23"",""P3"",""P10""]","[""P13"",""P8"",""U27"",""U17"",""U21"",""P14"",""P15"",""U2"",""P4"",""U25"",""P30"",""U16"",""P12"",""U5"",""U7"",""P29"",""U22"",""U19"",""P11"",""P26"",""U18"",""U6"",""U1"",""P20"",""U28"",""U9"",""U24"",""P23"",""U3"",""U10""]","3","3","0","0","0","0","","2565","","{""confidence_rating"":""Moderately confident""}","confidence_question","[0]","","","","","","","","","whiteboard","Unpredictable","","","","U30","30","1","11","","","","","","","","","","","","","Moderately confident"
"","","","","","video-keyboard-response","60","2.0.0","716584","91","1","2026-06-08 19:05:49","segmentation_norming_randomized_order_maxrun_attention_v4","71.7.130.172","Mozilla/5.0 (Windows NT 10.0; Win64; x64) AppleWebKit/537.36 (KHTML, like Gecko) Chrome/148.0.0.0 Safari/537.36","WebKit","Chrome","148.0.0.0","Windows","10.0","https://uencdihehs.cognition.run/?PROLIFIC_PID=69d2dbab29ed321c1b402b5e&STUDY_ID=6a270c2e609d6ae583c06396&STUDY_ID=6a270c2e609d6ae583c06396&SESSION_ID=6a2710ed9393086407134896?PROLIFIC_PID=69d2dbab29ed321c1b402b5e&SESSION_ID=6a2710ed9393086407134896?","en-US,en;q=0.9","69d2dbab29ed321c1b402b5e","6a270c2e609d6ae583c06396","6a2710ed9393086407134896?","69d2dbab29ed321c1b402b5e","6a270c2e609d6ae583c06396","6a2710ed9393086407134896?","30","[13,8,27,17,21,14,15,2,4,25,30,16,12,5,7,29,22,19,11,26,18,6,1,20,28,9,24,23,3,10]","[""U13"",""U8"",""P27"",""P17"",""P21"",""U14"",""U15"",""P2"",""U4"",""P25"",""U30"",""P16"",""U12"",""P5"",""P7"",""U29"",""P22"",""P19"",""U11"",""U26"",""P18"",""P6"",""P1"",""U20"",""P28"",""P9"",""P24"",""U23"",""P3"",""P10""]","[""P13"",""P8"",""U27"",""U17"",""U21"",""P14"",""P15"",""U2"",""P4"",""U25"",""P30"",""U16"",""P12"",""U5"",""U7"",""P29"",""U22"",""U19"",""P11"",""P26"",""U18"",""U6"",""U1"",""P20"",""U28"",""U9"",""U24"",""P23"",""U3"",""U10""]","3","3","0","0","0","0","","null","[""mouse_v1.mp4""]","null","segmentation_video","","","","","","","","","mouse_v1.mp4","mouse","Predictable","[2.534521,7.161299,9.848525,24.598811]","4","","P16","16","1","12","2.687226000000001","false","false","false","","false","0","0","false","false","false","false",""
"","","","","","survey-multi-choice","63","2.0.0","719498","91","1","2026-06-08 19:05:49","segmentation_norming_randomized_order_maxrun_attention_v4","71.7.130.172","Mozilla/5.0 (Windows NT 10.0; Win64; x64) AppleWebKit/537.36 (KHTML, like Gecko) Chrome/148.0.0.0 Safari/537.36","WebKit","Chrome","148.0.0.0","Windows","10.0","https://uencdihehs.cognition.run/?PROLIFIC_PID=69d2dbab29ed321c1b402b5e&STUDY_ID=6a270c2e609d6ae583c06396&STUDY_ID=6a270c2e609d6ae583c06396&SESSION_ID=6a2710ed9393086407134896?PROLIFIC_PID=69d2dbab29ed321c1b402b5e&SESSION_ID=6a2710ed9393086407134896?","en-US,en;q=0.9","69d2dbab29ed321c1b402b5e","6a270c2e609d6ae583c06396","6a2710ed9393086407134896?","69d2dbab29ed321c1b402b5e","6a270c2e609d6ae583c06396","6a2710ed9393086407134896?","30","[13,8,27,17,21,14,15,2,4,25,30,16,12,5,7,29,22,19,11,26,18,6,1,20,28,9,24,23,3,10]","[""U13"",""U8"",""P27"",""P17"",""P21"",""U14"",""U15"",""P2"",""U4"",""P25"",""U30"",""P16"",""U12"",""P5"",""P7"",""U29"",""P22"",""P19"",""U11"",""U26"",""P18"",""P6"",""P1"",""U20"",""P28"",""P9"",""P24"",""U23"",""P3"",""P10""]","[""P13"",""P8"",""U27"",""U17"",""U21"",""P14"",""P15"",""U2"",""P4"",""U25"",""P30"",""U16"",""P12"",""U5"",""U7"",""P29"",""U22"",""U19"",""P11"",""P26"",""U18"",""U6"",""U1"",""P20"",""U28"",""U9"",""U24"",""P23"",""U3"",""U10""]","3","3","0","0","0","0","","2913","","{""confidence_rating"":""Moderately confident""}","confidence_question","[0]","","","","","","","","","mouse","Predictable","","","","P16","16","1","12","","","","","","","","","","","","","Moderately confident"
"","","","","","video-keyboard-response","64","2.0.0","755303","91","1","2026-06-08 19:05:49","segmentation_norming_randomized_order_maxrun_attention_v4","71.7.130.172","Mozilla/5.0 (Windows NT 10.0; Win64; x64) AppleWebKit/537.36 (KHTML, like Gecko) Chrome/148.0.0.0 Safari/537.36","WebKit","Chrome","148.0.0.0","Windows","10.0","https://uencdihehs.cognition.run/?PROLIFIC_PID=69d2dbab29ed321c1b402b5e&STUDY_ID=6a270c2e609d6ae583c06396&STUDY_ID=6a270c2e609d6ae583c06396&SESSION_ID=6a2710ed9393086407134896?PROLIFIC_PID=69d2dbab29ed321c1b402b5e&SESSION_ID=6a2710ed9393086407134896?","en-US,en;q=0.9","69d2dbab29ed321c1b402b5e","6a270c2e609d6ae583c06396","6a2710ed9393086407134896?","69d2dbab29ed321c1b402b5e","6a270c2e609d6ae583c06396","6a2710ed9393086407134896?","30","[13,8,27,17,21,14,15,2,4,25,30,16,12,5,7,29,22,19,11,26,18,6,1,20,28,9,24,23,3,10]","[""U13"",""U8"",""P27"",""P17"",""P21"",""U14"",""U15"",""P2"",""U4"",""P25"",""U30"",""P16"",""U12"",""P5"",""P7"",""U29"",""P22"",""P19"",""U11"",""U26"",""P18"",""P6"",""P1"",""U20"",""P28"",""P9"",""P24"",""U23"",""P3"",""P10""]","[""P13"",""P8"",""U27"",""U17"",""U21"",""P14"",""P15"",""U2"",""P4"",""U25"",""P30"",""U16"",""P12"",""U5"",""U7"",""P29"",""U22"",""U19"",""P11"",""P26"",""U18"",""U6"",""U1"",""P20"",""U28"",""U9"",""U24"",""P23"",""U3"",""U10""]","3","3","0","0","0","0","","null","[""football_v2.mp4""]","null","segmentation_video","","","","","","","","","football_v2.mp4","football","Unpredictable","[3.014451,5.704635,10.190671,21.688126,30.336675]","5","","U12","12","1","13","2.6901839999999995","false","false","false","","false","0","0","false","false","false","false",""
"","","","","","survey-multi-choice","67","2.0.0","758526","91","1","2026-06-08 19:05:49","segmentation_norming_randomized_order_maxrun_attention_v4","71.7.130.172","Mozilla/5.0 (Windows NT 10.0; Win64; x64) AppleWebKit/537.36 (KHTML, like Gecko) Chrome/148.0.0.0 Safari/537.36","WebKit","Chrome","148.0.0.0","Windows","10.0","https://uencdihehs.cognition.run/?PROLIFIC_PID=69d2dbab29ed321c1b402b5e&STUDY_ID=6a270c2e609d6ae583c06396&STUDY_ID=6a270c2e609d6ae583c06396&SESSION_ID=6a2710ed9393086407134896?PROLIFIC_PID=69d2dbab29ed321c1b402b5e&SESSION_ID=6a2710ed9393086407134896?","en-US,en;q=0.9","69d2dbab29ed321c1b402b5e","6a270c2e609d6ae583c06396","6a2710ed9393086407134896?","69d2dbab29ed321c1b402b5e","6a270c2e609d6ae583c06396","6a2710ed9393086407134896?","30","[13,8,27,17,21,14,15,2,4,25,30,16,12,5,7,29,22,19,11,26,18,6,1,20,28,9,24,23,3,10]","[""U13"",""U8"",""P27"",""P17"",""P21"",""U14"",""U15"",""P2"",""U4"",""P25"",""U30"",""P16"",""U12"",""P5"",""P7"",""U29"",""P22"",""P19"",""U11"",""U26"",""P18"",""P6"",""P1"",""U20"",""P28"",""P9"",""P24"",""U23"",""P3"",""P10""]","[""P13"",""P8"",""U27"",""U17"",""U21"",""P14"",""P15"",""U2"",""P4"",""U25"",""P30"",""U16"",""P12"",""U5"",""U7"",""P29"",""U22"",""U19"",""P11"",""P26"",""U18"",""U6"",""U1"",""P20"",""U28"",""U9"",""U24"",""P23"",""U3"",""U10""]","3","3","0","0","0","0","","3221","","{""confidence_rating"":""Very confident""}","confidence_question","[0]","","","","","","","","","football","Unpredictable","","","","U12","12","1","13","","","","","","","","","","","","","Very confident"
"","","","","","video-keyboard-response","68","2.0.0","785383","91","1","2026-06-08 19:05:49","segmentation_norming_randomized_order_maxrun_attention_v4","71.7.130.172","Mozilla/5.0 (Windows NT 10.0; Win64; x64) AppleWebKit/537.36 (KHTML, like Gecko) Chrome/148.0.0.0 Safari/537.36","WebKit","Chrome","148.0.0.0","Windows","10.0","https://uencdihehs.cognition.run/?PROLIFIC_PID=69d2dbab29ed321c1b402b5e&STUDY_ID=6a270c2e609d6ae583c06396&STUDY_ID=6a270c2e609d6ae583c06396&SESSION_ID=6a2710ed9393086407134896?PROLIFIC_PID=69d2dbab29ed321c1b402b5e&SESSION_ID=6a2710ed9393086407134896?","en-US,en;q=0.9","69d2dbab29ed321c1b402b5e","6a270c2e609d6ae583c06396","6a2710ed9393086407134896?","69d2dbab29ed321c1b402b5e","6a270c2e609d6ae583c06396","6a2710ed9393086407134896?","30","[13,8,27,17,21,14,15,2,4,25,30,16,12,5,7,29,22,19,11,26,18,6,1,20,28,9,24,23,3,10]","[""U13"",""U8"",""P27"",""P17"",""P21"",""U14"",""U15"",""P2"",""U4"",""P25"",""U30"",""P16"",""U12"",""P5"",""P7"",""U29"",""P22"",""P19"",""U11"",""U26"",""P18"",""P6"",""P1"",""U20"",""P28"",""P9"",""P24"",""U23"",""P3"",""P10""]","[""P13"",""P8"",""U27"",""U17"",""U21"",""P14"",""P15"",""U2"",""P4"",""U25"",""P30"",""U16"",""P12"",""U5"",""U7"",""P29"",""U22"",""U19"",""P11"",""P26"",""U18"",""U6"",""U1"",""P20"",""U28"",""U9"",""U24"",""P23"",""U3"",""U10""]","3","3","0","0","0","0","","null","[""beach_v1.mp4""]","null","segmentation_video","","","","","","","","","beach_v1.mp4","beach","Predictable","[3.713388,6.332528,12.01052,14.945911,16.735856,18.759655,20.880369,22.408676,25.223884]","9","","P5","5","1","14","1.528306999999998","false","false","false","","false","0","0","false","false","false","false",""
"","","","","","survey-multi-choice","71","2.0.0","787632","91","1","2026-06-08 19:05:49","segmentation_norming_randomized_order_maxrun_attention_v4","71.7.130.172","Mozilla/5.0 (Windows NT 10.0; Win64; x64) AppleWebKit/537.36 (KHTML, like Gecko) Chrome/148.0.0.0 Safari/537.36","WebKit","Chrome","148.0.0.0","Windows","10.0","https://uencdihehs.cognition.run/?PROLIFIC_PID=69d2dbab29ed321c1b402b5e&STUDY_ID=6a270c2e609d6ae583c06396&STUDY_ID=6a270c2e609d6ae583c06396&SESSION_ID=6a2710ed9393086407134896?PROLIFIC_PID=69d2dbab29ed321c1b402b5e&SESSION_ID=6a2710ed9393086407134896?","en-US,en;q=0.9","69d2dbab29ed321c1b402b5e","6a270c2e609d6ae583c06396","6a2710ed9393086407134896?","69d2dbab29ed321c1b402b5e","6a270c2e609d6ae583c06396","6a2710ed9393086407134896?","30","[13,8,27,17,21,14,15,2,4,25,30,16,12,5,7,29,22,19,11,26,18,6,1,20,28,9,24,23,3,10]","[""U13"",""U8"",""P27"",""P17"",""P21"",""U14"",""U15"",""P2"",""U4"",""P25"",""U30"",""P16"",""U12"",""P5"",""P7"",""U29"",""P22"",""P19"",""U11"",""U26"",""P18"",""P6"",""P1"",""U20"",""P28"",""P9"",""P24"",""U23"",""P3"",""P10""]","[""P13"",""P8"",""U27"",""U17"",""U21"",""P14"",""P15"",""U2"",""P4"",""U25"",""P30"",""U16"",""P12"",""U5"",""U7"",""P29"",""U22"",""U19"",""P11"",""P26"",""U18"",""U6"",""U1"",""P20"",""U28"",""U9"",""U24"",""P23"",""U3"",""U10""]","3","3","0","0","0","0","","2248","","{""confidence_rating"":""Very confident""}","confidence_question","[0]","","","","","","","","","beach","Predictable","","","","P5","5","1","14","","","","","","","","","","","","","Very confident"
"","","","","","video-keyboard-response","72","2.0.0","818737","91","1","2026-06-08 19:05:49","segmentation_norming_randomized_order_maxrun_attention_v4","71.7.130.172","Mozilla/5.0 (Windows NT 10.0; Win64; x64) AppleWebKit/537.36 (KHTML, like Gecko) Chrome/148.0.0.0 Safari/537.36","WebKit","Chrome","148.0.0.0","Windows","10.0","https://uencdihehs.cognition.run/?PROLIFIC_PID=69d2dbab29ed321c1b402b5e&STUDY_ID=6a270c2e609d6ae583c06396&STUDY_ID=6a270c2e609d6ae583c06396&SESSION_ID=6a2710ed9393086407134896?PROLIFIC_PID=69d2dbab29ed321c1b402b5e&SESSION_ID=6a2710ed9393086407134896?","en-US,en;q=0.9","69d2dbab29ed321c1b402b5e","6a270c2e609d6ae583c06396","6a2710ed9393086407134896?","69d2dbab29ed321c1b402b5e","6a270c2e609d6ae583c06396","6a2710ed9393086407134896?","30","[13,8,27,17,21,14,15,2,4,25,30,16,12,5,7,29,22,19,11,26,18,6,1,20,28,9,24,23,3,10]","[""U13"",""U8"",""P27"",""P17"",""P21"",""U14"",""U15"",""P2"",""U4"",""P25"",""U30"",""P16"",""U12"",""P5"",""P7"",""U29"",""P22"",""P19"",""U11"",""U26"",""P18"",""P6"",""P1"",""U20"",""P28"",""P9"",""P24"",""U23"",""P3"",""P10""]","[""P13"",""P8"",""U27"",""U17"",""U21"",""P14"",""P15"",""U2"",""P4"",""U25"",""P30"",""U16"",""P12"",""U5"",""U7"",""P29"",""U22"",""U19"",""P11"",""P26"",""U18"",""U6"",""U1"",""P20"",""U28"",""U9"",""U24"",""P23"",""U3"",""U10""]","3","3","0","0","0","0","","null","[""bike_v1.mp4""]","null","segmentation_video","","","","","","","","","bike_v1.mp4","bike","Predictable","[6.114367,11.08,16.692235,21.713918,28.787402]","5","","P7","7","1","15","4.965633","false","false","false","","false","0","0","false","false","false","false",""
"","","","","","survey-multi-choice","75","2.0.0","821480","91","1","2026-06-08 19:05:49","segmentation_norming_randomized_order_maxrun_attention_v4","71.7.130.172","Mozilla/5.0 (Windows NT 10.0; Win64; x64) AppleWebKit/537.36 (KHTML, like Gecko) Chrome/148.0.0.0 Safari/537.36","WebKit","Chrome","148.0.0.0","Windows","10.0","https://uencdihehs.cognition.run/?PROLIFIC_PID=69d2dbab29ed321c1b402b5e&STUDY_ID=6a270c2e609d6ae583c06396&STUDY_ID=6a270c2e609d6ae583c06396&SESSION_ID=6a2710ed9393086407134896?PROLIFIC_PID=69d2dbab29ed321c1b402b5e&SESSION_ID=6a2710ed9393086407134896?","en-US,en;q=0.9","69d2dbab29ed321c1b402b5e","6a270c2e609d6ae583c06396","6a2710ed9393086407134896?","69d2dbab29ed321c1b402b5e","6a270c2e609d6ae583c06396","6a2710ed9393086407134896?","30","[13,8,27,17,21,14,15,2,4,25,30,16,12,5,7,29,22,19,11,26,18,6,1,20,28,9,24,23,3,10]","[""U13"",""U8"",""P27"",""P17"",""P21"",""U14"",""U15"",""P2"",""U4"",""P25"",""U30"",""P16"",""U12"",""P5"",""P7"",""U29"",""P22"",""P19"",""U11"",""U26"",""P18"",""P6"",""P1"",""U20"",""P28"",""P9"",""P24"",""U23"",""P3"",""P10""]","[""P13"",""P8"",""U27"",""U17"",""U21"",""P14"",""P15"",""U2"",""P4"",""U25"",""P30"",""U16"",""P12"",""U5"",""U7"",""P29"",""U22"",""U19"",""P11"",""P26"",""U18"",""U6"",""U1"",""P20"",""U28"",""U9"",""U24"",""P23"",""U3"",""U10""]","3","3","0","0","0","0","","2742","","{""confidence_rating"":""Very confident""}","confidence_question","[0]","","","","","","","","","bike","Predictable","","","","P7","7","1","15","","","","","","","","","","","","","Very confident"
"","","","","","video-keyboard-response","76","2.0.0","843117","91","1","2026-06-08 19:05:49","segmentation_norming_randomized_order_maxrun_attention_v4","71.7.130.172","Mozilla/5.0 (Windows NT 10.0; Win64; x64) AppleWebKit/537.36 (KHTML, like Gecko) Chrome/148.0.0.0 Safari/537.36","WebKit","Chrome","148.0.0.0","Windows","10.0","https://uencdihehs.cognition.run/?PROLIFIC_PID=69d2dbab29ed321c1b402b5e&STUDY_ID=6a270c2e609d6ae583c06396&STUDY_ID=6a270c2e609d6ae583c06396&SESSION_ID=6a2710ed9393086407134896?PROLIFIC_PID=69d2dbab29ed321c1b402b5e&SESSION_ID=6a2710ed9393086407134896?","en-US,en;q=0.9","69d2dbab29ed321c1b402b5e","6a270c2e609d6ae583c06396","6a2710ed9393086407134896?","69d2dbab29ed321c1b402b5e","6a270c2e609d6ae583c06396","6a2710ed9393086407134896?","30","[13,8,27,17,21,14,15,2,4,25,30,16,12,5,7,29,22,19,11,26,18,6,1,20,28,9,24,23,3,10]","[""U13"",""U8"",""P27"",""P17"",""P21"",""U14"",""U15"",""P2"",""U4"",""P25"",""U30"",""P16"",""U12"",""P5"",""P7"",""U29"",""P22"",""P19"",""U11"",""U26"",""P18"",""P6"",""P1"",""U20"",""P28"",""P9"",""P24"",""U23"",""P3"",""P10""]","[""P13"",""P8"",""U27"",""U17"",""U21"",""P14"",""P15"",""U2"",""P4"",""U25"",""P30"",""U16"",""P12"",""U5"",""U7"",""P29"",""U22"",""U19"",""P11"",""P26"",""U18"",""U6"",""U1"",""P20"",""U28"",""U9"",""U24"",""P23"",""U3"",""U10""]","3","3","0","0","0","0","","null","[""walking_v2.mp4""]","null","segmentation_video","","","","","","","","","walking_v2.mp4","walking","Unpredictable","[2.857336,7.541586,10.720553,13.573461,19.377678]","5","","U29","29","1","16","2.8529079999999993","false","false","false","","false","0","0","false","false","false","false",""
"","","","","","survey-multi-choice","79","2.0.0","846320","91","1","2026-06-08 19:05:49","segmentation_norming_randomized_order_maxrun_attention_v4","71.7.130.172","Mozilla/5.0 (Windows NT 10.0; Win64; x64) AppleWebKit/537.36 (KHTML, like Gecko) Chrome/148.0.0.0 Safari/537.36","WebKit","Chrome","148.0.0.0","Windows","10.0","https://uencdihehs.cognition.run/?PROLIFIC_PID=69d2dbab29ed321c1b402b5e&STUDY_ID=6a270c2e609d6ae583c06396&STUDY_ID=6a270c2e609d6ae583c06396&SESSION_ID=6a2710ed9393086407134896?PROLIFIC_PID=69d2dbab29ed321c1b402b5e&SESSION_ID=6a2710ed9393086407134896?","en-US,en;q=0.9","69d2dbab29ed321c1b402b5e","6a270c2e609d6ae583c06396","6a2710ed9393086407134896?","69d2dbab29ed321c1b402b5e","6a270c2e609d6ae583c06396","6a2710ed9393086407134896?","30","[13,8,27,17,21,14,15,2,4,25,30,16,12,5,7,29,22,19,11,26,18,6,1,20,28,9,24,23,3,10]","[""U13"",""U8"",""P27"",""P17"",""P21"",""U14"",""U15"",""P2"",""U4"",""P25"",""U30"",""P16"",""U12"",""P5"",""P7"",""U29"",""P22"",""P19"",""U11"",""U26"",""P18"",""P6"",""P1"",""U20"",""P28"",""P9"",""P24"",""U23"",""P3"",""P10""]","[""P13"",""P8"",""U27"",""U17"",""U21"",""P14"",""P15"",""U2"",""P4"",""U25"",""P30"",""U16"",""P12"",""U5"",""U7"",""P29"",""U22"",""U19"",""P11"",""P26"",""U18"",""U6"",""U1"",""P20"",""U28"",""U9"",""U24"",""P23"",""U3"",""U10""]","3","3","0","0","0","0","","3202","","{""confidence_rating"":""Very confident""}","confidence_question","[0]","","","","","","","","","walking","Unpredictable","","","","U29","29","1","16","","","","","","","","","","","","","Very confident"
"","","","","","video-keyboard-response","80","2.0.0","865556","91","1","2026-06-08 19:05:49","segmentation_norming_randomized_order_maxrun_attention_v4","71.7.130.172","Mozilla/5.0 (Windows NT 10.0; Win64; x64) AppleWebKit/537.36 (KHTML, like Gecko) Chrome/148.0.0.0 Safari/537.36","WebKit","Chrome","148.0.0.0","Windows","10.0","https://uencdihehs.cognition.run/?PROLIFIC_PID=69d2dbab29ed321c1b402b5e&STUDY_ID=6a270c2e609d6ae583c06396&STUDY_ID=6a270c2e609d6ae583c06396&SESSION_ID=6a2710ed9393086407134896?PROLIFIC_PID=69d2dbab29ed321c1b402b5e&SESSION_ID=6a2710ed9393086407134896?","en-US,en;q=0.9","69d2dbab29ed321c1b402b5e","6a270c2e609d6ae583c06396","6a2710ed9393086407134896?","69d2dbab29ed321c1b402b5e","6a270c2e609d6ae583c06396","6a2710ed9393086407134896?","30","[13,8,27,17,21,14,15,2,4,25,30,16,12,5,7,29,22,19,11,26,18,6,1,20,28,9,24,23,3,10]","[""U13"",""U8"",""P27"",""P17"",""P21"",""U14"",""U15"",""P2"",""U4"",""P25"",""U30"",""P16"",""U12"",""P5"",""P7"",""U29"",""P22"",""P19"",""U11"",""U26"",""P18"",""P6"",""P1"",""U20"",""P28"",""P9"",""P24"",""U23"",""P3"",""P10""]","[""P13"",""P8"",""U27"",""U17"",""U21"",""P14"",""P15"",""U2"",""P4"",""U25"",""P30"",""U16"",""P12"",""U5"",""U7"",""P29"",""U22"",""U19"",""P11"",""P26"",""U18"",""U6"",""U1"",""P20"",""U28"",""U9"",""U24"",""P23"",""U3"",""U10""]","3","3","0","0","0","0","","null","[""record_v1.mp4""]","null","segmentation_video","","","","","","","","","record_v1.mp4","record","Predictable","[6.984098,10.941284,18.300603]","3","","P22","22","1","17","3.957185999999999","false","false","false","","false","0","0","false","false","false","false",""
"","","","","","survey-multi-choice","83","2.0.0","868434","91","1","2026-06-08 19:05:49","segmentation_norming_randomized_order_maxrun_attention_v4","71.7.130.172","Mozilla/5.0 (Windows NT 10.0; Win64; x64) AppleWebKit/537.36 (KHTML, like Gecko) Chrome/148.0.0.0 Safari/537.36","WebKit","Chrome","148.0.0.0","Windows","10.0","https://uencdihehs.cognition.run/?PROLIFIC_PID=69d2dbab29ed321c1b402b5e&STUDY_ID=6a270c2e609d6ae583c06396&STUDY_ID=6a270c2e609d6ae583c06396&SESSION_ID=6a2710ed9393086407134896?PROLIFIC_PID=69d2dbab29ed321c1b402b5e&SESSION_ID=6a2710ed9393086407134896?","en-US,en;q=0.9","69d2dbab29ed321c1b402b5e","6a270c2e609d6ae583c06396","6a2710ed9393086407134896?","69d2dbab29ed321c1b402b5e","6a270c2e609d6ae583c06396","6a2710ed9393086407134896?","30","[13,8,27,17,21,14,15,2,4,25,30,16,12,5,7,29,22,19,11,26,18,6,1,20,28,9,24,23,3,10]","[""U13"",""U8"",""P27"",""P17"",""P21"",""U14"",""U15"",""P2"",""U4"",""P25"",""U30"",""P16"",""U12"",""P5"",""P7"",""U29"",""P22"",""P19"",""U11"",""U26"",""P18"",""P6"",""P1"",""U20"",""P28"",""P9"",""P24"",""U23"",""P3"",""P10""]","[""P13"",""P8"",""U27"",""U17"",""U21"",""P14"",""P15"",""U2"",""P4"",""U25"",""P30"",""U16"",""P12"",""U5"",""U7"",""P29"",""U22"",""U19"",""P11"",""P26"",""U18"",""U6"",""U1"",""P20"",""U28"",""U9"",""U24"",""P23"",""U3"",""U10""]","3","3","0","0","0","0","","2877","","{""confidence_rating"":""Moderately confident""}","confidence_question","[0]","","","","","","","","","record","Predictable","","","","P22","22","1","17","","","","","","","","","","","","","Moderately confident"
"","","","","","video-keyboard-response","84","2.0.0","903735","91","1","2026-06-08 19:05:49","segmentation_norming_randomized_order_maxrun_attention_v4","71.7.130.172","Mozilla/5.0 (Windows NT 10.0; Win64; x64) AppleWebKit/537.36 (KHTML, like Gecko) Chrome/148.0.0.0 Safari/537.36","WebKit","Chrome","148.0.0.0","Windows","10.0","https://uencdihehs.cognition.run/?PROLIFIC_PID=69d2dbab29ed321c1b402b5e&STUDY_ID=6a270c2e609d6ae583c06396&STUDY_ID=6a270c2e609d6ae583c06396&SESSION_ID=6a2710ed9393086407134896?PROLIFIC_PID=69d2dbab29ed321c1b402b5e&SESSION_ID=6a2710ed9393086407134896?","en-US,en;q=0.9","69d2dbab29ed321c1b402b5e","6a270c2e609d6ae583c06396","6a2710ed9393086407134896?","69d2dbab29ed321c1b402b5e","6a270c2e609d6ae583c06396","6a2710ed9393086407134896?","30","[13,8,27,17,21,14,15,2,4,25,30,16,12,5,7,29,22,19,11,26,18,6,1,20,28,9,24,23,3,10]","[""U13"",""U8"",""P27"",""P17"",""P21"",""U14"",""U15"",""P2"",""U4"",""P25"",""U30"",""P16"",""U12"",""P5"",""P7"",""U29"",""P22"",""P19"",""U11"",""U26"",""P18"",""P6"",""P1"",""U20"",""P28"",""P9"",""P24"",""U23"",""P3"",""P10""]","[""P13"",""P8"",""U27"",""U17"",""U21"",""P14"",""P15"",""U2"",""P4"",""U25"",""P30"",""U16"",""P12"",""U5"",""U7"",""P29"",""U22"",""U19"",""P11"",""P26"",""U18"",""U6"",""U1"",""P20"",""U28"",""U9"",""U24"",""P23"",""U3"",""U10""]","3","3","0","0","0","0","","null","[""party_v1.mp4""]","null","segmentation_video","","","","","","","","","party_v1.mp4","party","Predictable","[2.733161,6.437699,18.403937,22.784549,28.35691]","5","","P19","19","1","18","3.7045380000000003","false","false","false","","false","0","0","false","false","false","false",""
"","","","","","survey-multi-choice","87","2.0.0","908705","91","1","2026-06-08 19:05:49","segmentation_norming_randomized_order_maxrun_attention_v4","71.7.130.172","Mozilla/5.0 (Windows NT 10.0; Win64; x64) AppleWebKit/537.36 (KHTML, like Gecko) Chrome/148.0.0.0 Safari/537.36","WebKit","Chrome","148.0.0.0","Windows","10.0","https://uencdihehs.cognition.run/?PROLIFIC_PID=69d2dbab29ed321c1b402b5e&STUDY_ID=6a270c2e609d6ae583c06396&STUDY_ID=6a270c2e609d6ae583c06396&SESSION_ID=6a2710ed9393086407134896?PROLIFIC_PID=69d2dbab29ed321c1b402b5e&SESSION_ID=6a2710ed9393086407134896?","en-US,en;q=0.9","69d2dbab29ed321c1b402b5e","6a270c2e609d6ae583c06396","6a2710ed9393086407134896?","69d2dbab29ed321c1b402b5e","6a270c2e609d6ae583c06396","6a2710ed9393086407134896?","30","[13,8,27,17,21,14,15,2,4,25,30,16,12,5,7,29,22,19,11,26,18,6,1,20,28,9,24,23,3,10]","[""U13"",""U8"",""P27"",""P17"",""P21"",""U14"",""U15"",""P2"",""U4"",""P25"",""U30"",""P16"",""U12"",""P5"",""P7"",""U29"",""P22"",""P19"",""U11"",""U26"",""P18"",""P6"",""P1"",""U20"",""P28"",""P9"",""P24"",""U23"",""P3"",""P10""]","[""P13"",""P8"",""U27"",""U17"",""U21"",""P14"",""P15"",""U2"",""P4"",""U25"",""P30"",""U16"",""P12"",""U5"",""U7"",""P29"",""U22"",""U19"",""P11"",""P26"",""U18"",""U6"",""U1"",""P20"",""U28"",""U9"",""U24"",""P23"",""U3"",""U10""]","3","3","0","0","0","0","","4968","","{""confidence_rating"":""Moderately confident""}","confidence_question","[0]","","","","","","","","","party","Predictable","","","","P19","19","1","18","","","","","","","","","","","","","Moderately confident"
"","","","","","video-keyboard-response","88","2.0.0","939834","91","1","2026-06-08 19:05:49","segmentation_norming_randomized_order_maxrun_attention_v4","71.7.130.172","Mozilla/5.0 (Windows NT 10.0; Win64; x64) AppleWebKit/537.36 (KHTML, like Gecko) Chrome/148.0.0.0 Safari/537.36","WebKit","Chrome","148.0.0.0","Windows","10.0","https://uencdihehs.cognition.run/?PROLIFIC_PID=69d2dbab29ed321c1b402b5e&STUDY_ID=6a270c2e609d6ae583c06396&STUDY_ID=6a270c2e609d6ae583c06396&SESSION_ID=6a2710ed9393086407134896?PROLIFIC_PID=69d2dbab29ed321c1b402b5e&SESSION_ID=6a2710ed9393086407134896?","en-US,en;q=0.9","69d2dbab29ed321c1b402b5e","6a270c2e609d6ae583c06396","6a2710ed9393086407134896?","69d2dbab29ed321c1b402b5e","6a270c2e609d6ae583c06396","6a2710ed9393086407134896?","30","[13,8,27,17,21,14,15,2,4,25,30,16,12,5,7,29,22,19,11,26,18,6,1,20,28,9,24,23,3,10]","[""U13"",""U8"",""P27"",""P17"",""P21"",""U14"",""U15"",""P2"",""U4"",""P25"",""U30"",""P16"",""U12"",""P5"",""P7"",""U29"",""P22"",""P19"",""U11"",""U26"",""P18"",""P6"",""P1"",""U20"",""P28"",""P9"",""P24"",""U23"",""P3"",""P10""]","[""P13"",""P8"",""U27"",""U17"",""U21"",""P14"",""P15"",""U2"",""P4"",""U25"",""P30"",""U16"",""P12"",""U5"",""U7"",""P29"",""U22"",""U19"",""P11"",""P26"",""U18"",""U6"",""U1"",""P20"",""U28"",""U9"",""U24"",""P23"",""U3"",""U10""]","3","3","0","0","0","0","","null","[""fireplace_v2.mp4""]","null","segmentation_video","","","","","","","","","fireplace_v2.mp4","fireplace","Unpredictable","[7.691957,13.259866,18.5483,23.572039]","4","","U11","11","1","19","5.023738999999999","false","false","false","","false","0","0","false","false","false","false",""
"","","","","","survey-multi-choice","91","2.0.0","942844","91","1","2026-06-08 19:05:49","segmentation_norming_randomized_order_maxrun_attention_v4","71.7.130.172","Mozilla/5.0 (Windows NT 10.0; Win64; x64) AppleWebKit/537.36 (KHTML, like Gecko) Chrome/148.0.0.0 Safari/537.36","WebKit","Chrome","148.0.0.0","Windows","10.0","https://uencdihehs.cognition.run/?PROLIFIC_PID=69d2dbab29ed321c1b402b5e&STUDY_ID=6a270c2e609d6ae583c06396&STUDY_ID=6a270c2e609d6ae583c06396&SESSION_ID=6a2710ed9393086407134896?PROLIFIC_PID=69d2dbab29ed321c1b402b5e&SESSION_ID=6a2710ed9393086407134896?","en-US,en;q=0.9","69d2dbab29ed321c1b402b5e","6a270c2e609d6ae583c06396","6a2710ed9393086407134896?","69d2dbab29ed321c1b402b5e","6a270c2e609d6ae583c06396","6a2710ed9393086407134896?","30","[13,8,27,17,21,14,15,2,4,25,30,16,12,5,7,29,22,19,11,26,18,6,1,20,28,9,24,23,3,10]","[""U13"",""U8"",""P27"",""P17"",""P21"",""U14"",""U15"",""P2"",""U4"",""P25"",""U30"",""P16"",""U12"",""P5"",""P7"",""U29"",""P22"",""P19"",""U11"",""U26"",""P18"",""P6"",""P1"",""U20"",""P28"",""P9"",""P24"",""U23"",""P3"",""P10""]","[""P13"",""P8"",""U27"",""U17"",""U21"",""P14"",""P15"",""U2"",""P4"",""U25"",""P30"",""U16"",""P12"",""U5"",""U7"",""P29"",""U22"",""U19"",""P11"",""P26"",""U18"",""U6"",""U1"",""P20"",""U28"",""U9"",""U24"",""P23"",""U3"",""U10""]","3","3","0","0","0","0","","3009","","{""confidence_rating"":""Very confident""}","confidence_question","[0]","","","","","","","","","fireplace","Unpredictable","","","","U11","11","1","19","","","","","","","","","","","","","Very confident"
"","","","","","video-keyboard-response","92","2.0.0","983093","91","1","2026-06-08 19:05:49","segmentation_norming_randomized_order_maxrun_attention_v4","71.7.130.172","Mozilla/5.0 (Windows NT 10.0; Win64; x64) AppleWebKit/537.36 (KHTML, like Gecko) Chrome/148.0.0.0 Safari/537.36","WebKit","Chrome","148.0.0.0","Windows","10.0","https://uencdihehs.cognition.run/?PROLIFIC_PID=69d2dbab29ed321c1b402b5e&STUDY_ID=6a270c2e609d6ae583c06396&STUDY_ID=6a270c2e609d6ae583c06396&SESSION_ID=6a2710ed9393086407134896?PROLIFIC_PID=69d2dbab29ed321c1b402b5e&SESSION_ID=6a2710ed9393086407134896?","en-US,en;q=0.9","69d2dbab29ed321c1b402b5e","6a270c2e609d6ae583c06396","6a2710ed9393086407134896?","69d2dbab29ed321c1b402b5e","6a270c2e609d6ae583c06396","6a2710ed9393086407134896?","30","[13,8,27,17,21,14,15,2,4,25,30,16,12,5,7,29,22,19,11,26,18,6,1,20,28,9,24,23,3,10]","[""U13"",""U8"",""P27"",""P17"",""P21"",""U14"",""U15"",""P2"",""U4"",""P25"",""U30"",""P16"",""U12"",""P5"",""P7"",""U29"",""P22"",""P19"",""U11"",""U26"",""P18"",""P6"",""P1"",""U20"",""P28"",""P9"",""P24"",""U23"",""P3"",""P10""]","[""P13"",""P8"",""U27"",""U17"",""U21"",""P14"",""P15"",""U2"",""P4"",""U25"",""P30"",""U16"",""P12"",""U5"",""U7"",""P29"",""U22"",""U19"",""P11"",""P26"",""U18"",""U6"",""U1"",""P20"",""U28"",""U9"",""U24"",""P23"",""U3"",""U10""]","3","3","0","0","0","0","","null","[""sunbathing_v2.mp4""]","null","segmentation_video","","","","","","","","","sunbathing_v2.mp4","sunbathing","Unpredictable","[10.9468,22.351959,31.293448,32.83606,34.930703,38.593088]","6","","U26","26","1","20","1.5426120000000019","false","false","false","","false","0","0","false","false","false","false",""
"","","","","","survey-multi-choice","95","2.0.0","985941","91","1","2026-06-08 19:05:49","segmentation_norming_randomized_order_maxrun_attention_v4","71.7.130.172","Mozilla/5.0 (Windows NT 10.0; Win64; x64) AppleWebKit/537.36 (KHTML, like Gecko) Chrome/148.0.0.0 Safari/537.36","WebKit","Chrome","148.0.0.0","Windows","10.0","https://uencdihehs.cognition.run/?PROLIFIC_PID=69d2dbab29ed321c1b402b5e&STUDY_ID=6a270c2e609d6ae583c06396&STUDY_ID=6a270c2e609d6ae583c06396&SESSION_ID=6a2710ed9393086407134896?PROLIFIC_PID=69d2dbab29ed321c1b402b5e&SESSION_ID=6a2710ed9393086407134896?","en-US,en;q=0.9","69d2dbab29ed321c1b402b5e","6a270c2e609d6ae583c06396","6a2710ed9393086407134896?","69d2dbab29ed321c1b402b5e","6a270c2e609d6ae583c06396","6a2710ed9393086407134896?","30","[13,8,27,17,21,14,15,2,4,25,30,16,12,5,7,29,22,19,11,26,18,6,1,20,28,9,24,23,3,10]","[""U13"",""U8"",""P27"",""P17"",""P21"",""U14"",""U15"",""P2"",""U4"",""P25"",""U30"",""P16"",""U12"",""P5"",""P7"",""U29"",""P22"",""P19"",""U11"",""U26"",""P18"",""P6"",""P1"",""U20"",""P28"",""P9"",""P24"",""U23"",""P3"",""P10""]","[""P13"",""P8"",""U27"",""U17"",""U21"",""P14"",""P15"",""U2"",""P4"",""U25"",""P30"",""U16"",""P12"",""U5"",""U7"",""P29"",""U22"",""U19"",""P11"",""P26"",""U18"",""U6"",""U1"",""P20"",""U28"",""U9"",""U24"",""P23"",""U3"",""U10""]","3","3","0","0","0","0","","2847","","{""confidence_rating"":""Very confident""}","confidence_question","[0]","","","","","","","","","sunbathing","Unpredictable","","","","U26","26","1","20","","","","","","","","","","","","","Very confident"
"","","","","","video-keyboard-response","96","2.0.0","1010633","91","1","2026-06-08 19:05:49","segmentation_norming_randomized_order_maxrun_attention_v4","71.7.130.172","Mozilla/5.0 (Windows NT 10.0; Win64; x64) AppleWebKit/537.36 (KHTML, like Gecko) Chrome/148.0.0.0 Safari/537.36","WebKit","Chrome","148.0.0.0","Windows","10.0","https://uencdihehs.cognition.run/?PROLIFIC_PID=69d2dbab29ed321c1b402b5e&STUDY_ID=6a270c2e609d6ae583c06396&STUDY_ID=6a270c2e609d6ae583c06396&SESSION_ID=6a2710ed9393086407134896?PROLIFIC_PID=69d2dbab29ed321c1b402b5e&SESSION_ID=6a2710ed9393086407134896?","en-US,en;q=0.9","69d2dbab29ed321c1b402b5e","6a270c2e609d6ae583c06396","6a2710ed9393086407134896?","69d2dbab29ed321c1b402b5e","6a270c2e609d6ae583c06396","6a2710ed9393086407134896?","30","[13,8,27,17,21,14,15,2,4,25,30,16,12,5,7,29,22,19,11,26,18,6,1,20,28,9,24,23,3,10]","[""U13"",""U8"",""P27"",""P17"",""P21"",""U14"",""U15"",""P2"",""U4"",""P25"",""U30"",""P16"",""U12"",""P5"",""P7"",""U29"",""P22"",""P19"",""U11"",""U26"",""P18"",""P6"",""P1"",""U20"",""P28"",""P9"",""P24"",""U23"",""P3"",""P10""]","[""P13"",""P8"",""U27"",""U17"",""U21"",""P14"",""P15"",""U2"",""P4"",""U25"",""P30"",""U16"",""P12"",""U5"",""U7"",""P29"",""U22"",""U19"",""P11"",""P26"",""U18"",""U6"",""U1"",""P20"",""U28"",""U9"",""U24"",""P23"",""U3"",""U10""]","3","3","0","0","0","0","","null","[""painting_v1.mp4""]","null","segmentation_video","","","","","","","","","painting_v1.mp4","painting","Predictable","[6.968475,16.140217,20.425412,24.230568]","4","","P18","18","1","21","3.805156","false","false","false","","false","0","0","false","false","false","false",""
"","","","","","survey-multi-choice","99","2.0.0","1013129","91","1","2026-06-08 19:05:49","segmentation_norming_randomized_order_maxrun_attention_v4","71.7.130.172","Mozilla/5.0 (Windows NT 10.0; Win64; x64) AppleWebKit/537.36 (KHTML, like Gecko) Chrome/148.0.0.0 Safari/537.36","WebKit","Chrome","148.0.0.0","Windows","10.0","https://uencdihehs.cognition.run/?PROLIFIC_PID=69d2dbab29ed321c1b402b5e&STUDY_ID=6a270c2e609d6ae583c06396&STUDY_ID=6a270c2e609d6ae583c06396&SESSION_ID=6a2710ed9393086407134896?PROLIFIC_PID=69d2dbab29ed321c1b402b5e&SESSION_ID=6a2710ed9393086407134896?","en-US,en;q=0.9","69d2dbab29ed321c1b402b5e","6a270c2e609d6ae583c06396","6a2710ed9393086407134896?","69d2dbab29ed321c1b402b5e","6a270c2e609d6ae583c06396","6a2710ed9393086407134896?","30","[13,8,27,17,21,14,15,2,4,25,30,16,12,5,7,29,22,19,11,26,18,6,1,20,28,9,24,23,3,10]","[""U13"",""U8"",""P27"",""P17"",""P21"",""U14"",""U15"",""P2"",""U4"",""P25"",""U30"",""P16"",""U12"",""P5"",""P7"",""U29"",""P22"",""P19"",""U11"",""U26"",""P18"",""P6"",""P1"",""U20"",""P28"",""P9"",""P24"",""U23"",""P3"",""P10""]","[""P13"",""P8"",""U27"",""U17"",""U21"",""P14"",""P15"",""U2"",""P4"",""U25"",""P30"",""U16"",""P12"",""U5"",""U7"",""P29"",""U22"",""U19"",""P11"",""P26"",""U18"",""U6"",""U1"",""P20"",""U28"",""U9"",""U24"",""P23"",""U3"",""U10""]","3","3","0","0","0","0","","2496","","{""confidence_rating"":""Moderately confident""}","confidence_question","[0]","","","","","","","","","painting","Predictable","","","","P18","18","1","21","","","","","","","","","","","","","Moderately confident"
"","","","","","video-keyboard-response","100","2.0.0","1047932","91","1","2026-06-08 19:05:49","segmentation_norming_randomized_order_maxrun_attention_v4","71.7.130.172","Mozilla/5.0 (Windows NT 10.0; Win64; x64) AppleWebKit/537.36 (KHTML, like Gecko) Chrome/148.0.0.0 Safari/537.36","WebKit","Chrome","148.0.0.0","Windows","10.0","https://uencdihehs.cognition.run/?PROLIFIC_PID=69d2dbab29ed321c1b402b5e&STUDY_ID=6a270c2e609d6ae583c06396&STUDY_ID=6a270c2e609d6ae583c06396&SESSION_ID=6a2710ed9393086407134896?PROLIFIC_PID=69d2dbab29ed321c1b402b5e&SESSION_ID=6a2710ed9393086407134896?","en-US,en;q=0.9","69d2dbab29ed321c1b402b5e","6a270c2e609d6ae583c06396","6a2710ed9393086407134896?","69d2dbab29ed321c1b402b5e","6a270c2e609d6ae583c06396","6a2710ed9393086407134896?","30","[13,8,27,17,21,14,15,2,4,25,30,16,12,5,7,29,22,19,11,26,18,6,1,20,28,9,24,23,3,10]","[""U13"",""U8"",""P27"",""P17"",""P21"",""U14"",""U15"",""P2"",""U4"",""P25"",""U30"",""P16"",""U12"",""P5"",""P7"",""U29"",""P22"",""P19"",""U11"",""U26"",""P18"",""P6"",""P1"",""U20"",""P28"",""P9"",""P24"",""U23"",""P3"",""P10""]","[""P13"",""P8"",""U27"",""U17"",""U21"",""P14"",""P15"",""U2"",""P4"",""U25"",""P30"",""U16"",""P12"",""U5"",""U7"",""P29"",""U22"",""U19"",""P11"",""P26"",""U18"",""U6"",""U1"",""P20"",""U28"",""U9"",""U24"",""P23"",""U3"",""U10""]","3","3","0","0","0","0","","null","[""bedding_v1.mp4""]","null","segmentation_video","","","","","","","","","bedding_v1.mp4","bedding","Predictable","[5.575842,9.948663,20.058377,28.412682,31.090463]","5","","P6","6","1","22","2.6777809999999995","false","false","false","","false","0","0","false","false","false","false",""
"","","","","","survey-multi-choice","103","2.0.0","1051064","91","1","2026-06-08 19:05:49","segmentation_norming_randomized_order_maxrun_attention_v4","71.7.130.172","Mozilla/5.0 (Windows NT 10.0; Win64; x64) AppleWebKit/537.36 (KHTML, like Gecko) Chrome/148.0.0.0 Safari/537.36","WebKit","Chrome","148.0.0.0","Windows","10.0","https://uencdihehs.cognition.run/?PROLIFIC_PID=69d2dbab29ed321c1b402b5e&STUDY_ID=6a270c2e609d6ae583c06396&STUDY_ID=6a270c2e609d6ae583c06396&SESSION_ID=6a2710ed9393086407134896?PROLIFIC_PID=69d2dbab29ed321c1b402b5e&SESSION_ID=6a2710ed9393086407134896?","en-US,en;q=0.9","69d2dbab29ed321c1b402b5e","6a270c2e609d6ae583c06396","6a2710ed9393086407134896?","69d2dbab29ed321c1b402b5e","6a270c2e609d6ae583c06396","6a2710ed9393086407134896?","30","[13,8,27,17,21,14,15,2,4,25,30,16,12,5,7,29,22,19,11,26,18,6,1,20,28,9,24,23,3,10]","[""U13"",""U8"",""P27"",""P17"",""P21"",""U14"",""U15"",""P2"",""U4"",""P25"",""U30"",""P16"",""U12"",""P5"",""P7"",""U29"",""P22"",""P19"",""U11"",""U26"",""P18"",""P6"",""P1"",""U20"",""P28"",""P9"",""P24"",""U23"",""P3"",""P10""]","[""P13"",""P8"",""U27"",""U17"",""U21"",""P14"",""P15"",""U2"",""P4"",""U25"",""P30"",""U16"",""P12"",""U5"",""U7"",""P29"",""U22"",""U19"",""P11"",""P26"",""U18"",""U6"",""U1"",""P20"",""U28"",""U9"",""U24"",""P23"",""U3"",""U10""]","3","3","0","0","0","0","","3131","","{""confidence_rating"":""Very confident""}","confidence_question","[0]","","","","","","","","","bedding","Predictable","","","","P6","6","1","22","","","","","","","","","","","","","Very confident"
"","","","","","video-keyboard-response","104","2.0.0","1079952","91","1","2026-06-08 19:05:49","segmentation_norming_randomized_order_maxrun_attention_v4","71.7.130.172","Mozilla/5.0 (Windows NT 10.0; Win64; x64) AppleWebKit/537.36 (KHTML, like Gecko) Chrome/148.0.0.0 Safari/537.36","WebKit","Chrome","148.0.0.0","Windows","10.0","https://uencdihehs.cognition.run/?PROLIFIC_PID=69d2dbab29ed321c1b402b5e&STUDY_ID=6a270c2e609d6ae583c06396&STUDY_ID=6a270c2e609d6ae583c06396&SESSION_ID=6a2710ed9393086407134896?PROLIFIC_PID=69d2dbab29ed321c1b402b5e&SESSION_ID=6a2710ed9393086407134896?","en-US,en;q=0.9","69d2dbab29ed321c1b402b5e","6a270c2e609d6ae583c06396","6a2710ed9393086407134896?","69d2dbab29ed321c1b402b5e","6a270c2e609d6ae583c06396","6a2710ed9393086407134896?","30","[13,8,27,17,21,14,15,2,4,25,30,16,12,5,7,29,22,19,11,26,18,6,1,20,28,9,24,23,3,10]","[""U13"",""U8"",""P27"",""P17"",""P21"",""U14"",""U15"",""P2"",""U4"",""P25"",""U30"",""P16"",""U12"",""P5"",""P7"",""U29"",""P22"",""P19"",""U11"",""U26"",""P18"",""P6"",""P1"",""U20"",""P28"",""P9"",""P24"",""U23"",""P3"",""P10""]","[""P13"",""P8"",""U27"",""U17"",""U21"",""P14"",""P15"",""U2"",""P4"",""U25"",""P30"",""U16"",""P12"",""U5"",""U7"",""P29"",""U22"",""U19"",""P11"",""P26"",""U18"",""U6"",""U1"",""P20"",""U28"",""U9"",""U24"",""P23"",""U3"",""U10""]","3","3","0","0","0","0","","null","[""baking_v1.mp4""]","null","segmentation_video","","","","","","","","","baking_v1.mp4","baking","Predictable","[3.215708,9.767873,17.646389,20.038752,21.748123,23.218037,27.760465]","7","","P1","1","1","23","1.4699139999999993","false","false","false","","false","0","0","false","false","false","false",""
"","","","","","survey-multi-choice","107","2.0.0","1082588","91","1","2026-06-08 19:05:49","segmentation_norming_randomized_order_maxrun_attention_v4","71.7.130.172","Mozilla/5.0 (Windows NT 10.0; Win64; x64) AppleWebKit/537.36 (KHTML, like Gecko) Chrome/148.0.0.0 Safari/537.36","WebKit","Chrome","148.0.0.0","Windows","10.0","https://uencdihehs.cognition.run/?PROLIFIC_PID=69d2dbab29ed321c1b402b5e&STUDY_ID=6a270c2e609d6ae583c06396&STUDY_ID=6a270c2e609d6ae583c06396&SESSION_ID=6a2710ed9393086407134896?PROLIFIC_PID=69d2dbab29ed321c1b402b5e&SESSION_ID=6a2710ed9393086407134896?","en-US,en;q=0.9","69d2dbab29ed321c1b402b5e","6a270c2e609d6ae583c06396","6a2710ed9393086407134896?","69d2dbab29ed321c1b402b5e","6a270c2e609d6ae583c06396","6a2710ed9393086407134896?","30","[13,8,27,17,21,14,15,2,4,25,30,16,12,5,7,29,22,19,11,26,18,6,1,20,28,9,24,23,3,10]","[""U13"",""U8"",""P27"",""P17"",""P21"",""U14"",""U15"",""P2"",""U4"",""P25"",""U30"",""P16"",""U12"",""P5"",""P7"",""U29"",""P22"",""P19"",""U11"",""U26"",""P18"",""P6"",""P1"",""U20"",""P28"",""P9"",""P24"",""U23"",""P3"",""P10""]","[""P13"",""P8"",""U27"",""U17"",""U21"",""P14"",""P15"",""U2"",""P4"",""U25"",""P30"",""U16"",""P12"",""U5"",""U7"",""P29"",""U22"",""U19"",""P11"",""P26"",""U18"",""U6"",""U1"",""P20"",""U28"",""U9"",""U24"",""P23"",""U3"",""U10""]","3","3","0","0","0","0","","2636","","{""confidence_rating"":""Very confident""}","confidence_question","[0]","","","","","","","","","baking","Predictable","","","","P1","1","1","23","","","","","","","","","","","","","Very confident"
