"success","timeout","failed_images","failed_audio","failed_video","trial_type","trial_index","plugin_version","time_elapsed","run_id","condition","recorded_at","source_code_version","ip","user_agent","device","browser","browser_version","platform","platform_version","referer","accept_language","PROLIFIC_PID","STUDY_ID","SESSION_ID","subject_id","study_id","session_id","pair_count","randomized_pair_order","block1_codes","block2_codes","max_run_block1","max_run_block2","fullscreen_exit_count","tab_switch_count","video_attention_failure_count","total_attention_violation_count","view_history","rt","stimulus","response","trial_kind","question_order","spacebar_question_answer","attention_question_answer","spacebar_question_correct","attention_question_correct","instruction_check_passed","demo_index","demo_code","stimulus_file","stimulus_name","predictability","boundary_times_sec","boundary_count","value","video_code","pair_number","block","global_position_in_block","min_press_gap_sec","no_press_failure","rapid_press_failure","video_attention_failed","video_attention_failure_type","last_video_had_any_attention_violation","current_video_fullscreen_exit_count","current_video_tab_switch_count","current_video_had_fullscreen_exit","current_video_had_tab_switch","current_video_had_video_attention_failure","skipped_video_debug","confidence_rating"
"true","false","[]","[]","[]","preload","0","2.0.0","24031","90","1","2026-06-08 18:52:47","segmentation_norming_randomized_order_maxrun_attention_v4","51.146.137.77","Mozilla/5.0 (Windows NT 10.0; Win64; x64) AppleWebKit/537.36 (KHTML, like Gecko) Chrome/146.0.0.0 Safari/537.36","WebKit","Chrome","146.0.0.0","Windows","10.0","https://uencdihehs.cognition.run/?PROLIFIC_PID=69fbbd287ad72ce563b72cb7&STUDY_ID=6a270c2e609d6ae583c06396&STUDY_ID=6a270c2e609d6ae583c06396&SESSION_ID=6a270f78f401ec8e3fba9662?PROLIFIC_PID=69fbbd287ad72ce563b72cb7&SESSION_ID=6a270f78f401ec8e3fba9662?","en-GB,en;q=0.9","69fbbd287ad72ce563b72cb7","6a270c2e609d6ae583c06396","6a270f78f401ec8e3fba9662?","69fbbd287ad72ce563b72cb7","6a270c2e609d6ae583c06396","6a270f78f401ec8e3fba9662?","30","[14,7,9,13,23,24,1,15,21,10,29,16,22,30,6,3,26,4,19,20,28,25,12,27,2,17,8,18,11,5]","[""P14"",""P7"",""U9"",""P13"",""U23"",""U24"",""U1"",""U15"",""P21"",""U10"",""P29"",""U16"",""P22"",""U30"",""P6"",""P3"",""U26"",""P4"",""U19"",""P20"",""U28"",""U25"",""U12"",""U27"",""P2"",""U17"",""P8"",""U18"",""P11"",""P5""]","[""U14"",""U7"",""P9"",""U13"",""P23"",""P24"",""P1"",""P15"",""U21"",""P10"",""U29"",""P16"",""U22"",""P30"",""U6"",""U3"",""P26"",""U4"",""P19"",""U20"",""P28"",""P25"",""P12"",""P27"",""U2"",""P17"",""U8"",""P18"",""U11"",""U5""]","4","4","0","0","1","1","","","","","","","","","","","","","","","","","","","","","","","","","","","","","","","","","","","",""
"","","","","","instructions","1","2.0.0","149388","90","1","2026-06-08 18:52:47","segmentation_norming_randomized_order_maxrun_attention_v4","51.146.137.77","Mozilla/5.0 (Windows NT 10.0; Win64; x64) AppleWebKit/537.36 (KHTML, like Gecko) Chrome/146.0.0.0 Safari/537.36","WebKit","Chrome","146.0.0.0","Windows","10.0","https://uencdihehs.cognition.run/?PROLIFIC_PID=69fbbd287ad72ce563b72cb7&STUDY_ID=6a270c2e609d6ae583c06396&STUDY_ID=6a270c2e609d6ae583c06396&SESSION_ID=6a270f78f401ec8e3fba9662?PROLIFIC_PID=69fbbd287ad72ce563b72cb7&SESSION_ID=6a270f78f401ec8e3fba9662?","en-GB,en;q=0.9","69fbbd287ad72ce563b72cb7","6a270c2e609d6ae583c06396","6a270f78f401ec8e3fba9662?","69fbbd287ad72ce563b72cb7","6a270c2e609d6ae583c06396","6a270f78f401ec8e3fba9662?","30","[14,7,9,13,23,24,1,15,21,10,29,16,22,30,6,3,26,4,19,20,28,25,12,27,2,17,8,18,11,5]","[""P14"",""P7"",""U9"",""P13"",""U23"",""U24"",""U1"",""U15"",""P21"",""U10"",""P29"",""U16"",""P22"",""U30"",""P6"",""P3"",""U26"",""P4"",""U19"",""P20"",""U28"",""U25"",""U12"",""U27"",""P2"",""U17"",""P8"",""U18"",""P11"",""P5""]","[""U14"",""U7"",""P9"",""U13"",""P23"",""P24"",""P1"",""P15"",""U21"",""P10"",""U29"",""P16"",""U22"",""P30"",""U6"",""U3"",""P26"",""U4"",""P19"",""U20"",""P28"",""P25"",""P12"",""P27"",""U2"",""P17"",""U8"",""P18"",""U11"",""U5""]","4","4","0","0","1","1","[{""page_index"":0,""viewing_time"":125355}]","125355","","","","","","","","","","","","","","","","","","","","","","","","","","","","","","","","","",""
"true","","","","","fullscreen","2","2.0.0","152397","90","1","2026-06-08 18:52:47","segmentation_norming_randomized_order_maxrun_attention_v4","51.146.137.77","Mozilla/5.0 (Windows NT 10.0; Win64; x64) AppleWebKit/537.36 (KHTML, like Gecko) Chrome/146.0.0.0 Safari/537.36","WebKit","Chrome","146.0.0.0","Windows","10.0","https://uencdihehs.cognition.run/?PROLIFIC_PID=69fbbd287ad72ce563b72cb7&STUDY_ID=6a270c2e609d6ae583c06396&STUDY_ID=6a270c2e609d6ae583c06396&SESSION_ID=6a270f78f401ec8e3fba9662?PROLIFIC_PID=69fbbd287ad72ce563b72cb7&SESSION_ID=6a270f78f401ec8e3fba9662?","en-GB,en;q=0.9","69fbbd287ad72ce563b72cb7","6a270c2e609d6ae583c06396","6a270f78f401ec8e3fba9662?","69fbbd287ad72ce563b72cb7","6a270c2e609d6ae583c06396","6a270f78f401ec8e3fba9662?","30","[14,7,9,13,23,24,1,15,21,10,29,16,22,30,6,3,26,4,19,20,28,25,12,27,2,17,8,18,11,5]","[""P14"",""P7"",""U9"",""P13"",""U23"",""U24"",""U1"",""U15"",""P21"",""U10"",""P29"",""U16"",""P22"",""U30"",""P6"",""P3"",""U26"",""P4"",""U19"",""P20"",""U28"",""U25"",""U12"",""U27"",""P2"",""U17"",""P8"",""U18"",""P11"",""P5""]","[""U14"",""U7"",""P9"",""U13"",""P23"",""P24"",""P1"",""P15"",""U21"",""P10"",""U29"",""P16"",""U22"",""P30"",""U6"",""U3"",""P26"",""U4"",""P19"",""U20"",""P28"",""P25"",""P12"",""P27"",""U2"",""P17"",""U8"",""P18"",""U11"",""U5""]","4","4","0","0","1","1","","2006","","","","","","","","","","","","","","","","","","","","","","","","","","","","","","","","","",""
"","","","","","html-button-response","3","2.0.0","195404","90","1","2026-06-08 18:52:47","segmentation_norming_randomized_order_maxrun_attention_v4","51.146.137.77","Mozilla/5.0 (Windows NT 10.0; Win64; x64) AppleWebKit/537.36 (KHTML, like Gecko) Chrome/146.0.0.0 Safari/537.36","WebKit","Chrome","146.0.0.0","Windows","10.0","https://uencdihehs.cognition.run/?PROLIFIC_PID=69fbbd287ad72ce563b72cb7&STUDY_ID=6a270c2e609d6ae583c06396&STUDY_ID=6a270c2e609d6ae583c06396&SESSION_ID=6a270f78f401ec8e3fba9662?PROLIFIC_PID=69fbbd287ad72ce563b72cb7&SESSION_ID=6a270f78f401ec8e3fba9662?","en-GB,en;q=0.9","69fbbd287ad72ce563b72cb7","6a270c2e609d6ae583c06396","6a270f78f401ec8e3fba9662?","69fbbd287ad72ce563b72cb7","6a270c2e609d6ae583c06396","6a270f78f401ec8e3fba9662?","30","[14,7,9,13,23,24,1,15,21,10,29,16,22,30,6,3,26,4,19,20,28,25,12,27,2,17,8,18,11,5]","[""P14"",""P7"",""U9"",""P13"",""U23"",""U24"",""U1"",""U15"",""P21"",""U10"",""P29"",""U16"",""P22"",""U30"",""P6"",""P3"",""U26"",""P4"",""U19"",""P20"",""U28"",""U25"",""U12"",""U27"",""P2"",""U17"",""P8"",""U18"",""P11"",""P5""]","[""U14"",""U7"",""P9"",""U13"",""P23"",""P24"",""P1"",""P15"",""U21"",""P10"",""U29"",""P16"",""U22"",""P30"",""U6"",""U3"",""P26"",""U4"",""P19"",""U20"",""P28"",""P25"",""P12"",""P27"",""U2"",""P17"",""U8"",""P18"",""U11"",""U5""]","4","4","0","0","1","1","","43005","The experiment requires continuous attention and full-screen participation throughout the task.<br><br>You may be asked to exit the experiment and cancel your participation if you exit Full Screen Mode, switch tabs, or fail to meet the attention criteria more than the allowed number of times.<br><br>Please read the following instructions carefully.","0","","","","","","","","","","","","","","","","","","","","","","","","","","","","","","","",""
"","","","","","instructions","4","2.0.0","222077","90","1","2026-06-08 18:52:47","segmentation_norming_randomized_order_maxrun_attention_v4","51.146.137.77","Mozilla/5.0 (Windows NT 10.0; Win64; x64) AppleWebKit/537.36 (KHTML, like Gecko) Chrome/146.0.0.0 Safari/537.36","WebKit","Chrome","146.0.0.0","Windows","10.0","https://uencdihehs.cognition.run/?PROLIFIC_PID=69fbbd287ad72ce563b72cb7&STUDY_ID=6a270c2e609d6ae583c06396&STUDY_ID=6a270c2e609d6ae583c06396&SESSION_ID=6a270f78f401ec8e3fba9662?PROLIFIC_PID=69fbbd287ad72ce563b72cb7&SESSION_ID=6a270f78f401ec8e3fba9662?","en-GB,en;q=0.9","69fbbd287ad72ce563b72cb7","6a270c2e609d6ae583c06396","6a270f78f401ec8e3fba9662?","69fbbd287ad72ce563b72cb7","6a270c2e609d6ae583c06396","6a270f78f401ec8e3fba9662?","30","[14,7,9,13,23,24,1,15,21,10,29,16,22,30,6,3,26,4,19,20,28,25,12,27,2,17,8,18,11,5]","[""P14"",""P7"",""U9"",""P13"",""U23"",""U24"",""U1"",""U15"",""P21"",""U10"",""P29"",""U16"",""P22"",""U30"",""P6"",""P3"",""U26"",""P4"",""U19"",""P20"",""U28"",""U25"",""U12"",""U27"",""P2"",""U17"",""P8"",""U18"",""P11"",""P5""]","[""U14"",""U7"",""P9"",""U13"",""P23"",""P24"",""P1"",""P15"",""U21"",""P10"",""U29"",""P16"",""U22"",""P30"",""U6"",""U3"",""P26"",""U4"",""P19"",""U20"",""P28"",""P25"",""P12"",""P27"",""U2"",""P17"",""U8"",""P18"",""U11"",""U5""]","4","4","0","0","1","1","[{""page_index"":0,""viewing_time"":26671}]","26671","","","","","","","","","","","","","","","","","","","","","","","","","","","","","","","","","",""
"","","","","","html-button-response","5","2.0.0","233813","90","1","2026-06-08 18:52:47","segmentation_norming_randomized_order_maxrun_attention_v4","51.146.137.77","Mozilla/5.0 (Windows NT 10.0; Win64; x64) AppleWebKit/537.36 (KHTML, like Gecko) Chrome/146.0.0.0 Safari/537.36","WebKit","Chrome","146.0.0.0","Windows","10.0","https://uencdihehs.cognition.run/?PROLIFIC_PID=69fbbd287ad72ce563b72cb7&STUDY_ID=6a270c2e609d6ae583c06396&STUDY_ID=6a270c2e609d6ae583c06396&SESSION_ID=6a270f78f401ec8e3fba9662?PROLIFIC_PID=69fbbd287ad72ce563b72cb7&SESSION_ID=6a270f78f401ec8e3fba9662?","en-GB,en;q=0.9","69fbbd287ad72ce563b72cb7","6a270c2e609d6ae583c06396","6a270f78f401ec8e3fba9662?","69fbbd287ad72ce563b72cb7","6a270c2e609d6ae583c06396","6a270f78f401ec8e3fba9662?","30","[14,7,9,13,23,24,1,15,21,10,29,16,22,30,6,3,26,4,19,20,28,25,12,27,2,17,8,18,11,5]","[""P14"",""P7"",""U9"",""P13"",""U23"",""U24"",""U1"",""U15"",""P21"",""U10"",""P29"",""U16"",""P22"",""U30"",""P6"",""P3"",""U26"",""P4"",""U19"",""P20"",""U28"",""U25"",""U12"",""U27"",""P2"",""U17"",""P8"",""U18"",""P11"",""P5""]","[""U14"",""U7"",""P9"",""U13"",""P23"",""P24"",""P1"",""P15"",""U21"",""P10"",""U29"",""P16"",""U22"",""P30"",""U6"",""U3"",""P26"",""U4"",""P19"",""U20"",""P28"",""P25"",""P12"",""P27"",""U2"",""P17"",""U8"",""P18"",""U11"",""U5""]","4","4","0","0","1","1","","11735","Please pay attention when watching videos and marking boundaries.<br><br>There are several hidden attention criteria to make sure you watch the videos carefully.<br><br>If you fail these hidden criteria more than the allowed number of times, you may be asked to exit the experiment.","0","","","","","","","","","","","","","","","","","","","","","","","","","","","","","","","",""
"","","","","","survey-multi-choice","6","2.0.0","257693","90","1","2026-06-08 18:52:47","segmentation_norming_randomized_order_maxrun_attention_v4","51.146.137.77","Mozilla/5.0 (Windows NT 10.0; Win64; x64) AppleWebKit/537.36 (KHTML, like Gecko) Chrome/146.0.0.0 Safari/537.36","WebKit","Chrome","146.0.0.0","Windows","10.0","https://uencdihehs.cognition.run/?PROLIFIC_PID=69fbbd287ad72ce563b72cb7&STUDY_ID=6a270c2e609d6ae583c06396&STUDY_ID=6a270c2e609d6ae583c06396&SESSION_ID=6a270f78f401ec8e3fba9662?PROLIFIC_PID=69fbbd287ad72ce563b72cb7&SESSION_ID=6a270f78f401ec8e3fba9662?","en-GB,en;q=0.9","69fbbd287ad72ce563b72cb7","6a270c2e609d6ae583c06396","6a270f78f401ec8e3fba9662?","69fbbd287ad72ce563b72cb7","6a270c2e609d6ae583c06396","6a270f78f401ec8e3fba9662?","30","[14,7,9,13,23,24,1,15,21,10,29,16,22,30,6,3,26,4,19,20,28,25,12,27,2,17,8,18,11,5]","[""P14"",""P7"",""U9"",""P13"",""U23"",""U24"",""U1"",""U15"",""P21"",""U10"",""P29"",""U16"",""P22"",""U30"",""P6"",""P3"",""U26"",""P4"",""U19"",""P20"",""U28"",""U25"",""U12"",""U27"",""P2"",""U17"",""P8"",""U18"",""P11"",""P5""]","[""U14"",""U7"",""P9"",""U13"",""P23"",""P24"",""P1"",""P15"",""U21"",""P10"",""U29"",""P16"",""U22"",""P30"",""U6"",""U3"",""P26"",""U4"",""P19"",""U20"",""P28"",""P25"",""P12"",""P27"",""U2"",""P17"",""U8"",""P18"",""U11"",""U5""]","4","4","0","0","1","1","","23879","","{""spacebar_question"":""All of the above answers are wrong"",""attention_question"":""Press space bar to segment the video""}","comprehension_check","[0,1]","All of the above answers are wrong","Press space bar to segment the video","false","true","false","","","","","","","","","","","","","","","","","","","","","","","","",""
"","","","","","html-button-response","7","2.0.0","260469","90","1","2026-06-08 18:52:47","segmentation_norming_randomized_order_maxrun_attention_v4","51.146.137.77","Mozilla/5.0 (Windows NT 10.0; Win64; x64) AppleWebKit/537.36 (KHTML, like Gecko) Chrome/146.0.0.0 Safari/537.36","WebKit","Chrome","146.0.0.0","Windows","10.0","https://uencdihehs.cognition.run/?PROLIFIC_PID=69fbbd287ad72ce563b72cb7&STUDY_ID=6a270c2e609d6ae583c06396&STUDY_ID=6a270c2e609d6ae583c06396&SESSION_ID=6a270f78f401ec8e3fba9662?PROLIFIC_PID=69fbbd287ad72ce563b72cb7&SESSION_ID=6a270f78f401ec8e3fba9662?","en-GB,en;q=0.9","69fbbd287ad72ce563b72cb7","6a270c2e609d6ae583c06396","6a270f78f401ec8e3fba9662?","69fbbd287ad72ce563b72cb7","6a270c2e609d6ae583c06396","6a270f78f401ec8e3fba9662?","30","[14,7,9,13,23,24,1,15,21,10,29,16,22,30,6,3,26,4,19,20,28,25,12,27,2,17,8,18,11,5]","[""P14"",""P7"",""U9"",""P13"",""U23"",""U24"",""U1"",""U15"",""P21"",""U10"",""P29"",""U16"",""P22"",""U30"",""P6"",""P3"",""U26"",""P4"",""U19"",""P20"",""U28"",""U25"",""U12"",""U27"",""P2"",""U17"",""P8"",""U18"",""P11"",""P5""]","[""U14"",""U7"",""P9"",""U13"",""P23"",""P24"",""P1"",""P15"",""U21"",""P10"",""U29"",""P16"",""U22"",""P30"",""U6"",""U3"",""P26"",""U4"",""P19"",""U20"",""P28"",""P25"",""P12"",""P27"",""U2"",""P17"",""U8"",""P18"",""U11"",""U5""]","4","4","0","0","1","1","","2775","You answered some questions incorrectly.<br><br>Please read the instructions again before continuing.","0","","","","","","","","","","","","","","","","","","","","","","","","","","","","","","","",""
"","","","","","instructions","8","2.0.0","276926","90","1","2026-06-08 18:52:47","segmentation_norming_randomized_order_maxrun_attention_v4","51.146.137.77","Mozilla/5.0 (Windows NT 10.0; Win64; x64) AppleWebKit/537.36 (KHTML, like Gecko) Chrome/146.0.0.0 Safari/537.36","WebKit","Chrome","146.0.0.0","Windows","10.0","https://uencdihehs.cognition.run/?PROLIFIC_PID=69fbbd287ad72ce563b72cb7&STUDY_ID=6a270c2e609d6ae583c06396&STUDY_ID=6a270c2e609d6ae583c06396&SESSION_ID=6a270f78f401ec8e3fba9662?PROLIFIC_PID=69fbbd287ad72ce563b72cb7&SESSION_ID=6a270f78f401ec8e3fba9662?","en-GB,en;q=0.9","69fbbd287ad72ce563b72cb7","6a270c2e609d6ae583c06396","6a270f78f401ec8e3fba9662?","69fbbd287ad72ce563b72cb7","6a270c2e609d6ae583c06396","6a270f78f401ec8e3fba9662?","30","[14,7,9,13,23,24,1,15,21,10,29,16,22,30,6,3,26,4,19,20,28,25,12,27,2,17,8,18,11,5]","[""P14"",""P7"",""U9"",""P13"",""U23"",""U24"",""U1"",""U15"",""P21"",""U10"",""P29"",""U16"",""P22"",""U30"",""P6"",""P3"",""U26"",""P4"",""U19"",""P20"",""U28"",""U25"",""U12"",""U27"",""P2"",""U17"",""P8"",""U18"",""P11"",""P5""]","[""U14"",""U7"",""P9"",""U13"",""P23"",""P24"",""P1"",""P15"",""U21"",""P10"",""U29"",""P16"",""U22"",""P30"",""U6"",""U3"",""P26"",""U4"",""P19"",""U20"",""P28"",""P25"",""P12"",""P27"",""U2"",""P17"",""U8"",""P18"",""U11"",""U5""]","4","4","0","0","1","1","[{""page_index"":0,""viewing_time"":16454}]","16455","","","","","","","","","","","","","","","","","","","","","","","","","","","","","","","","","",""
"","","","","","html-button-response","9","2.0.0","280470","90","1","2026-06-08 18:52:47","segmentation_norming_randomized_order_maxrun_attention_v4","51.146.137.77","Mozilla/5.0 (Windows NT 10.0; Win64; x64) AppleWebKit/537.36 (KHTML, like Gecko) Chrome/146.0.0.0 Safari/537.36","WebKit","Chrome","146.0.0.0","Windows","10.0","https://uencdihehs.cognition.run/?PROLIFIC_PID=69fbbd287ad72ce563b72cb7&STUDY_ID=6a270c2e609d6ae583c06396&STUDY_ID=6a270c2e609d6ae583c06396&SESSION_ID=6a270f78f401ec8e3fba9662?PROLIFIC_PID=69fbbd287ad72ce563b72cb7&SESSION_ID=6a270f78f401ec8e3fba9662?","en-GB,en;q=0.9","69fbbd287ad72ce563b72cb7","6a270c2e609d6ae583c06396","6a270f78f401ec8e3fba9662?","69fbbd287ad72ce563b72cb7","6a270c2e609d6ae583c06396","6a270f78f401ec8e3fba9662?","30","[14,7,9,13,23,24,1,15,21,10,29,16,22,30,6,3,26,4,19,20,28,25,12,27,2,17,8,18,11,5]","[""P14"",""P7"",""U9"",""P13"",""U23"",""U24"",""U1"",""U15"",""P21"",""U10"",""P29"",""U16"",""P22"",""U30"",""P6"",""P3"",""U26"",""P4"",""U19"",""P20"",""U28"",""U25"",""U12"",""U27"",""P2"",""U17"",""P8"",""U18"",""P11"",""P5""]","[""U14"",""U7"",""P9"",""U13"",""P23"",""P24"",""P1"",""P15"",""U21"",""P10"",""U29"",""P16"",""U22"",""P30"",""U6"",""U3"",""P26"",""U4"",""P19"",""U20"",""P28"",""P25"",""P12"",""P27"",""U2"",""P17"",""U8"",""P18"",""U11"",""U5""]","4","4","0","0","1","1","","3543","Please pay attention when watching videos and marking boundaries.<br><br>There are several hidden attention criteria to make sure you watch the videos carefully.<br><br>If you fail these hidden criteria more than the allowed number of times, you may be asked to exit the experiment.","0","","","","","","","","","","","","","","","","","","","","","","","","","","","","","","","",""
"","","","","","survey-multi-choice","10","2.0.0","292054","90","1","2026-06-08 18:52:47","segmentation_norming_randomized_order_maxrun_attention_v4","51.146.137.77","Mozilla/5.0 (Windows NT 10.0; Win64; x64) AppleWebKit/537.36 (KHTML, like Gecko) Chrome/146.0.0.0 Safari/537.36","WebKit","Chrome","146.0.0.0","Windows","10.0","https://uencdihehs.cognition.run/?PROLIFIC_PID=69fbbd287ad72ce563b72cb7&STUDY_ID=6a270c2e609d6ae583c06396&STUDY_ID=6a270c2e609d6ae583c06396&SESSION_ID=6a270f78f401ec8e3fba9662?PROLIFIC_PID=69fbbd287ad72ce563b72cb7&SESSION_ID=6a270f78f401ec8e3fba9662?","en-GB,en;q=0.9","69fbbd287ad72ce563b72cb7","6a270c2e609d6ae583c06396","6a270f78f401ec8e3fba9662?","69fbbd287ad72ce563b72cb7","6a270c2e609d6ae583c06396","6a270f78f401ec8e3fba9662?","30","[14,7,9,13,23,24,1,15,21,10,29,16,22,30,6,3,26,4,19,20,28,25,12,27,2,17,8,18,11,5]","[""P14"",""P7"",""U9"",""P13"",""U23"",""U24"",""U1"",""U15"",""P21"",""U10"",""P29"",""U16"",""P22"",""U30"",""P6"",""P3"",""U26"",""P4"",""U19"",""P20"",""U28"",""U25"",""U12"",""U27"",""P2"",""U17"",""P8"",""U18"",""P11"",""P5""]","[""U14"",""U7"",""P9"",""U13"",""P23"",""P24"",""P1"",""P15"",""U21"",""P10"",""U29"",""P16"",""U22"",""P30"",""U6"",""U3"",""P26"",""U4"",""P19"",""U20"",""P28"",""P25"",""P12"",""P27"",""U2"",""P17"",""U8"",""P18"",""U11"",""U5""]","4","4","0","0","1","1","","11583","","{""spacebar_question"":""Between the smallest meaningful events or actions"",""attention_question"":""Press space bar to segment the video""}","comprehension_check","[0,1]","Between the smallest meaningful events or actions","Press space bar to segment the video","true","true","true","","","","","","","","","","","","","","","","","","","","","","","","",""
"","","","","","html-button-response","12","2.0.0","375991","90","1","2026-06-08 18:52:47","segmentation_norming_randomized_order_maxrun_attention_v4","51.146.137.77","Mozilla/5.0 (Windows NT 10.0; Win64; x64) AppleWebKit/537.36 (KHTML, like Gecko) Chrome/146.0.0.0 Safari/537.36","WebKit","Chrome","146.0.0.0","Windows","10.0","https://uencdihehs.cognition.run/?PROLIFIC_PID=69fbbd287ad72ce563b72cb7&STUDY_ID=6a270c2e609d6ae583c06396&STUDY_ID=6a270c2e609d6ae583c06396&SESSION_ID=6a270f78f401ec8e3fba9662?PROLIFIC_PID=69fbbd287ad72ce563b72cb7&SESSION_ID=6a270f78f401ec8e3fba9662?","en-GB,en;q=0.9","69fbbd287ad72ce563b72cb7","6a270c2e609d6ae583c06396","6a270f78f401ec8e3fba9662?","69fbbd287ad72ce563b72cb7","6a270c2e609d6ae583c06396","6a270f78f401ec8e3fba9662?","30","[14,7,9,13,23,24,1,15,21,10,29,16,22,30,6,3,26,4,19,20,28,25,12,27,2,17,8,18,11,5]","[""P14"",""P7"",""U9"",""P13"",""U23"",""U24"",""U1"",""U15"",""P21"",""U10"",""P29"",""U16"",""P22"",""U30"",""P6"",""P3"",""U26"",""P4"",""U19"",""P20"",""U28"",""U25"",""U12"",""U27"",""P2"",""U17"",""P8"",""U18"",""P11"",""P5""]","[""U14"",""U7"",""P9"",""U13"",""P23"",""P24"",""P1"",""P15"",""U21"",""P10"",""U29"",""P16"",""U22"",""P30"",""U6"",""U3"",""P26"",""U4"",""P19"",""U20"",""P28"",""P25"",""P12"",""P27"",""U2"",""P17"",""U8"",""P18"",""U11"",""U5""]","4","4","0","0","1","1","","83935","You have learned the instructions for the task! Here is a demo trial.<br><br>Like what you will do in the main experiment,<br><br> you will watch a movie clip and at the same time mark off the activity in the movie into the <strong>smallest meaningful units</strong> that seem natural and meaningful to you.<br><br>Remember, tap the <strong>SPACE BAR</strong> to mark off a boundary between two <strong>smallest meaningful units</strong> of activity.<br><br>A green bar will appear at the bottom of the screen when you press the button.<br><br>","0","","","","","","","","","","","","","","","","","","","","","","","","","","","","","","","",""
"","","","","","video-keyboard-response","13","2.0.0","392378","90","1","2026-06-08 18:52:47","segmentation_norming_randomized_order_maxrun_attention_v4","51.146.137.77","Mozilla/5.0 (Windows NT 10.0; Win64; x64) AppleWebKit/537.36 (KHTML, like Gecko) Chrome/146.0.0.0 Safari/537.36","WebKit","Chrome","146.0.0.0","Windows","10.0","https://uencdihehs.cognition.run/?PROLIFIC_PID=69fbbd287ad72ce563b72cb7&STUDY_ID=6a270c2e609d6ae583c06396&STUDY_ID=6a270c2e609d6ae583c06396&SESSION_ID=6a270f78f401ec8e3fba9662?PROLIFIC_PID=69fbbd287ad72ce563b72cb7&SESSION_ID=6a270f78f401ec8e3fba9662?","en-GB,en;q=0.9","69fbbd287ad72ce563b72cb7","6a270c2e609d6ae583c06396","6a270f78f401ec8e3fba9662?","69fbbd287ad72ce563b72cb7","6a270c2e609d6ae583c06396","6a270f78f401ec8e3fba9662?","30","[14,7,9,13,23,24,1,15,21,10,29,16,22,30,6,3,26,4,19,20,28,25,12,27,2,17,8,18,11,5]","[""P14"",""P7"",""U9"",""P13"",""U23"",""U24"",""U1"",""U15"",""P21"",""U10"",""P29"",""U16"",""P22"",""U30"",""P6"",""P3"",""U26"",""P4"",""U19"",""P20"",""U28"",""U25"",""U12"",""U27"",""P2"",""U17"",""P8"",""U18"",""P11"",""P5""]","[""U14"",""U7"",""P9"",""U13"",""P23"",""P24"",""P1"",""P15"",""U21"",""P10"",""U29"",""P16"",""U22"",""P30"",""U6"",""U3"",""P26"",""U4"",""P19"",""U20"",""P28"",""P25"",""P12"",""P27"",""U2"",""P17"",""U8"",""P18"",""U11"",""U5""]","4","4","0","0","1","1","","null","[""library_v1.mp4""]","null","demo_video","","","","","","","1","demo1","library_v1.mp4","library","Demo","[]","0","","","","","","","","","","","","","","","","","",""
"","","","","","call-function","14","2.0.0","392379","90","1","2026-06-08 18:52:47","segmentation_norming_randomized_order_maxrun_attention_v4","51.146.137.77","Mozilla/5.0 (Windows NT 10.0; Win64; x64) AppleWebKit/537.36 (KHTML, like Gecko) Chrome/146.0.0.0 Safari/537.36","WebKit","Chrome","146.0.0.0","Windows","10.0","https://uencdihehs.cognition.run/?PROLIFIC_PID=69fbbd287ad72ce563b72cb7&STUDY_ID=6a270c2e609d6ae583c06396&STUDY_ID=6a270c2e609d6ae583c06396&SESSION_ID=6a270f78f401ec8e3fba9662?PROLIFIC_PID=69fbbd287ad72ce563b72cb7&SESSION_ID=6a270f78f401ec8e3fba9662?","en-GB,en;q=0.9","69fbbd287ad72ce563b72cb7","6a270c2e609d6ae583c06396","6a270f78f401ec8e3fba9662?","69fbbd287ad72ce563b72cb7","6a270c2e609d6ae583c06396","6a270f78f401ec8e3fba9662?","30","[14,7,9,13,23,24,1,15,21,10,29,16,22,30,6,3,26,4,19,20,28,25,12,27,2,17,8,18,11,5]","[""P14"",""P7"",""U9"",""P13"",""U23"",""U24"",""U1"",""U15"",""P21"",""U10"",""P29"",""U16"",""P22"",""U30"",""P6"",""P3"",""U26"",""P4"",""U19"",""P20"",""U28"",""U25"",""U12"",""U27"",""P2"",""U17"",""P8"",""U18"",""P11"",""P5""]","[""U14"",""U7"",""P9"",""U13"",""P23"",""P24"",""P1"",""P15"",""U21"",""P10"",""U29"",""P16"",""U22"",""P30"",""U6"",""U3"",""P26"",""U4"",""P19"",""U20"",""P28"",""P25"",""P12"",""P27"",""U2"",""P17"",""U8"",""P18"",""U11"",""U5""]","4","4","0","0","1","1","","","","","","","","","","","","","","","","","","","","","","","","","","","","","","","","","","","",""
"","","","","","html-button-response","15","2.0.0","402464","90","1","2026-06-08 18:52:47","segmentation_norming_randomized_order_maxrun_attention_v4","51.146.137.77","Mozilla/5.0 (Windows NT 10.0; Win64; x64) AppleWebKit/537.36 (KHTML, like Gecko) Chrome/146.0.0.0 Safari/537.36","WebKit","Chrome","146.0.0.0","Windows","10.0","https://uencdihehs.cognition.run/?PROLIFIC_PID=69fbbd287ad72ce563b72cb7&STUDY_ID=6a270c2e609d6ae583c06396&STUDY_ID=6a270c2e609d6ae583c06396&SESSION_ID=6a270f78f401ec8e3fba9662?PROLIFIC_PID=69fbbd287ad72ce563b72cb7&SESSION_ID=6a270f78f401ec8e3fba9662?","en-GB,en;q=0.9","69fbbd287ad72ce563b72cb7","6a270c2e609d6ae583c06396","6a270f78f401ec8e3fba9662?","69fbbd287ad72ce563b72cb7","6a270c2e609d6ae583c06396","6a270f78f401ec8e3fba9662?","30","[14,7,9,13,23,24,1,15,21,10,29,16,22,30,6,3,26,4,19,20,28,25,12,27,2,17,8,18,11,5]","[""P14"",""P7"",""U9"",""P13"",""U23"",""U24"",""U1"",""U15"",""P21"",""U10"",""P29"",""U16"",""P22"",""U30"",""P6"",""P3"",""U26"",""P4"",""U19"",""P20"",""U28"",""U25"",""U12"",""U27"",""P2"",""U17"",""P8"",""U18"",""P11"",""P5""]","[""U14"",""U7"",""P9"",""U13"",""P23"",""P24"",""P1"",""P15"",""U21"",""P10"",""U29"",""P16"",""U22"",""P30"",""U6"",""U3"",""P26"",""U4"",""P19"",""U20"",""P28"",""P25"",""P12"",""P27"",""U2"",""P17"",""U8"",""P18"",""U11"",""U5""]","4","4","0","0","1","1","","10083","Usually people tend to press the button more times than you did.<br><br>As a reminder, press the <strong>SPACE BAR</strong> whenever one <strong>smallest meaningful unit</strong> of activity ends and another begins.<br><br>Let's try another demo trial.<br><br>","0","demo_feedback","","","","","","","","","","","","","","","","","","","","","","","","","","","","","","",""
"","","","","","video-keyboard-response","16","2.0.0","437949","90","1","2026-06-08 18:52:47","segmentation_norming_randomized_order_maxrun_attention_v4","51.146.137.77","Mozilla/5.0 (Windows NT 10.0; Win64; x64) AppleWebKit/537.36 (KHTML, like Gecko) Chrome/146.0.0.0 Safari/537.36","WebKit","Chrome","146.0.0.0","Windows","10.0","https://uencdihehs.cognition.run/?PROLIFIC_PID=69fbbd287ad72ce563b72cb7&STUDY_ID=6a270c2e609d6ae583c06396&STUDY_ID=6a270c2e609d6ae583c06396&SESSION_ID=6a270f78f401ec8e3fba9662?PROLIFIC_PID=69fbbd287ad72ce563b72cb7&SESSION_ID=6a270f78f401ec8e3fba9662?","en-GB,en;q=0.9","69fbbd287ad72ce563b72cb7","6a270c2e609d6ae583c06396","6a270f78f401ec8e3fba9662?","69fbbd287ad72ce563b72cb7","6a270c2e609d6ae583c06396","6a270f78f401ec8e3fba9662?","30","[14,7,9,13,23,24,1,15,21,10,29,16,22,30,6,3,26,4,19,20,28,25,12,27,2,17,8,18,11,5]","[""P14"",""P7"",""U9"",""P13"",""U23"",""U24"",""U1"",""U15"",""P21"",""U10"",""P29"",""U16"",""P22"",""U30"",""P6"",""P3"",""U26"",""P4"",""U19"",""P20"",""U28"",""U25"",""U12"",""U27"",""P2"",""U17"",""P8"",""U18"",""P11"",""P5""]","[""U14"",""U7"",""P9"",""U13"",""P23"",""P24"",""P1"",""P15"",""U21"",""P10"",""U29"",""P16"",""U22"",""P30"",""U6"",""U3"",""P26"",""U4"",""P19"",""U20"",""P28"",""P25"",""P12"",""P27"",""U2"",""P17"",""U8"",""P18"",""U11"",""U5""]","4","4","0","0","1","1","","null","[""garden_v1.mp4""]","null","demo_video","","","","","","","2","demo2","garden_v1.mp4","garden","Demo","[1.198988,4.79738,7.007258,11.078896,17.257117,29.805379,31.750634]","7","","","","","","","","","","","","","","","","","",""
"","","","","","call-function","17","2.0.0","437950","90","1","2026-06-08 18:52:47","segmentation_norming_randomized_order_maxrun_attention_v4","51.146.137.77","Mozilla/5.0 (Windows NT 10.0; Win64; x64) AppleWebKit/537.36 (KHTML, like Gecko) Chrome/146.0.0.0 Safari/537.36","WebKit","Chrome","146.0.0.0","Windows","10.0","https://uencdihehs.cognition.run/?PROLIFIC_PID=69fbbd287ad72ce563b72cb7&STUDY_ID=6a270c2e609d6ae583c06396&STUDY_ID=6a270c2e609d6ae583c06396&SESSION_ID=6a270f78f401ec8e3fba9662?PROLIFIC_PID=69fbbd287ad72ce563b72cb7&SESSION_ID=6a270f78f401ec8e3fba9662?","en-GB,en;q=0.9","69fbbd287ad72ce563b72cb7","6a270c2e609d6ae583c06396","6a270f78f401ec8e3fba9662?","69fbbd287ad72ce563b72cb7","6a270c2e609d6ae583c06396","6a270f78f401ec8e3fba9662?","30","[14,7,9,13,23,24,1,15,21,10,29,16,22,30,6,3,26,4,19,20,28,25,12,27,2,17,8,18,11,5]","[""P14"",""P7"",""U9"",""P13"",""U23"",""U24"",""U1"",""U15"",""P21"",""U10"",""P29"",""U16"",""P22"",""U30"",""P6"",""P3"",""U26"",""P4"",""U19"",""P20"",""U28"",""U25"",""U12"",""U27"",""P2"",""U17"",""P8"",""U18"",""P11"",""P5""]","[""U14"",""U7"",""P9"",""U13"",""P23"",""P24"",""P1"",""P15"",""U21"",""P10"",""U29"",""P16"",""U22"",""P30"",""U6"",""U3"",""P26"",""U4"",""P19"",""U20"",""P28"",""P25"",""P12"",""P27"",""U2"",""P17"",""U8"",""P18"",""U11"",""U5""]","4","4","0","0","1","1","","","","","","","","","","","","","","","","","","","","","","","","","","","","","","","","","","","",""
"","","","","","html-button-response","18","2.0.0","455343","90","1","2026-06-08 18:52:47","segmentation_norming_randomized_order_maxrun_attention_v4","51.146.137.77","Mozilla/5.0 (Windows NT 10.0; Win64; x64) AppleWebKit/537.36 (KHTML, like Gecko) Chrome/146.0.0.0 Safari/537.36","WebKit","Chrome","146.0.0.0","Windows","10.0","https://uencdihehs.cognition.run/?PROLIFIC_PID=69fbbd287ad72ce563b72cb7&STUDY_ID=6a270c2e609d6ae583c06396&STUDY_ID=6a270c2e609d6ae583c06396&SESSION_ID=6a270f78f401ec8e3fba9662?PROLIFIC_PID=69fbbd287ad72ce563b72cb7&SESSION_ID=6a270f78f401ec8e3fba9662?","en-GB,en;q=0.9","69fbbd287ad72ce563b72cb7","6a270c2e609d6ae583c06396","6a270f78f401ec8e3fba9662?","69fbbd287ad72ce563b72cb7","6a270c2e609d6ae583c06396","6a270f78f401ec8e3fba9662?","30","[14,7,9,13,23,24,1,15,21,10,29,16,22,30,6,3,26,4,19,20,28,25,12,27,2,17,8,18,11,5]","[""P14"",""P7"",""U9"",""P13"",""U23"",""U24"",""U1"",""U15"",""P21"",""U10"",""P29"",""U16"",""P22"",""U30"",""P6"",""P3"",""U26"",""P4"",""U19"",""P20"",""U28"",""U25"",""U12"",""U27"",""P2"",""U17"",""P8"",""U18"",""P11"",""P5""]","[""U14"",""U7"",""P9"",""U13"",""P23"",""P24"",""P1"",""P15"",""U21"",""P10"",""U29"",""P16"",""U22"",""P30"",""U6"",""U3"",""P26"",""U4"",""P19"",""U20"",""P28"",""P25"",""P12"",""P27"",""U2"",""P17"",""U8"",""P18"",""U11"",""U5""]","4","4","0","0","1","1","","17393","Usually people tend to press the button more times than you did.<br><br>As a reminder, press the <strong>SPACE BAR</strong> whenever one <strong>smallest meaningful unit</strong> of activity ends and another begins.<br><br>Let's try another demo trial.<br><br>","0","demo_feedback","","","","","","","","","","","","","","","","","","","","","","","","","","","","","","",""
"","","","","","video-keyboard-response","19","2.0.0","479811","90","1","2026-06-08 18:52:47","segmentation_norming_randomized_order_maxrun_attention_v4","51.146.137.77","Mozilla/5.0 (Windows NT 10.0; Win64; x64) AppleWebKit/537.36 (KHTML, like Gecko) Chrome/146.0.0.0 Safari/537.36","WebKit","Chrome","146.0.0.0","Windows","10.0","https://uencdihehs.cognition.run/?PROLIFIC_PID=69fbbd287ad72ce563b72cb7&STUDY_ID=6a270c2e609d6ae583c06396&STUDY_ID=6a270c2e609d6ae583c06396&SESSION_ID=6a270f78f401ec8e3fba9662?PROLIFIC_PID=69fbbd287ad72ce563b72cb7&SESSION_ID=6a270f78f401ec8e3fba9662?","en-GB,en;q=0.9","69fbbd287ad72ce563b72cb7","6a270c2e609d6ae583c06396","6a270f78f401ec8e3fba9662?","69fbbd287ad72ce563b72cb7","6a270c2e609d6ae583c06396","6a270f78f401ec8e3fba9662?","30","[14,7,9,13,23,24,1,15,21,10,29,16,22,30,6,3,26,4,19,20,28,25,12,27,2,17,8,18,11,5]","[""P14"",""P7"",""U9"",""P13"",""U23"",""U24"",""U1"",""U15"",""P21"",""U10"",""P29"",""U16"",""P22"",""U30"",""P6"",""P3"",""U26"",""P4"",""U19"",""P20"",""U28"",""U25"",""U12"",""U27"",""P2"",""U17"",""P8"",""U18"",""P11"",""P5""]","[""U14"",""U7"",""P9"",""U13"",""P23"",""P24"",""P1"",""P15"",""U21"",""P10"",""U29"",""P16"",""U22"",""P30"",""U6"",""U3"",""P26"",""U4"",""P19"",""U20"",""P28"",""P25"",""P12"",""P27"",""U2"",""P17"",""U8"",""P18"",""U11"",""U5""]","4","4","0","0","1","1","","null","[""vending_v1.mp4""]","null","demo_video","","","","","","","3","demo3","vending_v1.mp4","vending","Demo","[35.413313,2.216291,35.413313,5.104057,35.413313,7.016451,35.413313,11.151614,35.413313,12.77444,35.413313,16.078343,35.413313,18.426211,35.413313,23.497696]","16","","","","","","","","","","","","","","","","","",""
"","","","","","call-function","20","2.0.0","479812","90","1","2026-06-08 18:52:47","segmentation_norming_randomized_order_maxrun_attention_v4","51.146.137.77","Mozilla/5.0 (Windows NT 10.0; Win64; x64) AppleWebKit/537.36 (KHTML, like Gecko) Chrome/146.0.0.0 Safari/537.36","WebKit","Chrome","146.0.0.0","Windows","10.0","https://uencdihehs.cognition.run/?PROLIFIC_PID=69fbbd287ad72ce563b72cb7&STUDY_ID=6a270c2e609d6ae583c06396&STUDY_ID=6a270c2e609d6ae583c06396&SESSION_ID=6a270f78f401ec8e3fba9662?PROLIFIC_PID=69fbbd287ad72ce563b72cb7&SESSION_ID=6a270f78f401ec8e3fba9662?","en-GB,en;q=0.9","69fbbd287ad72ce563b72cb7","6a270c2e609d6ae583c06396","6a270f78f401ec8e3fba9662?","69fbbd287ad72ce563b72cb7","6a270c2e609d6ae583c06396","6a270f78f401ec8e3fba9662?","30","[14,7,9,13,23,24,1,15,21,10,29,16,22,30,6,3,26,4,19,20,28,25,12,27,2,17,8,18,11,5]","[""P14"",""P7"",""U9"",""P13"",""U23"",""U24"",""U1"",""U15"",""P21"",""U10"",""P29"",""U16"",""P22"",""U30"",""P6"",""P3"",""U26"",""P4"",""U19"",""P20"",""U28"",""U25"",""U12"",""U27"",""P2"",""U17"",""P8"",""U18"",""P11"",""P5""]","[""U14"",""U7"",""P9"",""U13"",""P23"",""P24"",""P1"",""P15"",""U21"",""P10"",""U29"",""P16"",""U22"",""P30"",""U6"",""U3"",""P26"",""U4"",""P19"",""U20"",""P28"",""P25"",""P12"",""P27"",""U2"",""P17"",""U8"",""P18"",""U11"",""U5""]","4","4","0","0","1","1","","","","","","","","","","","","","","","","","","","","","","","","","","","","","","","","","","","",""
"","","","","","html-button-response","21","2.0.0","492008","90","1","2026-06-08 18:52:47","segmentation_norming_randomized_order_maxrun_attention_v4","51.146.137.77","Mozilla/5.0 (Windows NT 10.0; Win64; x64) AppleWebKit/537.36 (KHTML, like Gecko) Chrome/146.0.0.0 Safari/537.36","WebKit","Chrome","146.0.0.0","Windows","10.0","https://uencdihehs.cognition.run/?PROLIFIC_PID=69fbbd287ad72ce563b72cb7&STUDY_ID=6a270c2e609d6ae583c06396&STUDY_ID=6a270c2e609d6ae583c06396&SESSION_ID=6a270f78f401ec8e3fba9662?PROLIFIC_PID=69fbbd287ad72ce563b72cb7&SESSION_ID=6a270f78f401ec8e3fba9662?","en-GB,en;q=0.9","69fbbd287ad72ce563b72cb7","6a270c2e609d6ae583c06396","6a270f78f401ec8e3fba9662?","69fbbd287ad72ce563b72cb7","6a270c2e609d6ae583c06396","6a270f78f401ec8e3fba9662?","30","[14,7,9,13,23,24,1,15,21,10,29,16,22,30,6,3,26,4,19,20,28,25,12,27,2,17,8,18,11,5]","[""P14"",""P7"",""U9"",""P13"",""U23"",""U24"",""U1"",""U15"",""P21"",""U10"",""P29"",""U16"",""P22"",""U30"",""P6"",""P3"",""U26"",""P4"",""U19"",""P20"",""U28"",""U25"",""U12"",""U27"",""P2"",""U17"",""P8"",""U18"",""P11"",""P5""]","[""U14"",""U7"",""P9"",""U13"",""P23"",""P24"",""P1"",""P15"",""U21"",""P10"",""U29"",""P16"",""U22"",""P30"",""U6"",""U3"",""P26"",""U4"",""P19"",""U20"",""P28"",""P25"",""P12"",""P27"",""U2"",""P17"",""U8"",""P18"",""U11"",""U5""]","4","4","0","0","1","1","","12196","Usually people tend to press the button fewer times than you did.<br><br>As a reminder, press the <strong>SPACE BAR</strong> whenever one <strong>smallest meaningful unit</strong> of activity ends and another begins.<br><br>Let's try another demo trial.<br><br>","0","demo_feedback","","","","","","","","","","","","","","","","","","","","","","","","","","","","","","",""
"","","","","","video-keyboard-response","22","2.0.0","535435","90","1","2026-06-08 18:52:47","segmentation_norming_randomized_order_maxrun_attention_v4","51.146.137.77","Mozilla/5.0 (Windows NT 10.0; Win64; x64) AppleWebKit/537.36 (KHTML, like Gecko) Chrome/146.0.0.0 Safari/537.36","WebKit","Chrome","146.0.0.0","Windows","10.0","https://uencdihehs.cognition.run/?PROLIFIC_PID=69fbbd287ad72ce563b72cb7&STUDY_ID=6a270c2e609d6ae583c06396&STUDY_ID=6a270c2e609d6ae583c06396&SESSION_ID=6a270f78f401ec8e3fba9662?PROLIFIC_PID=69fbbd287ad72ce563b72cb7&SESSION_ID=6a270f78f401ec8e3fba9662?","en-GB,en;q=0.9","69fbbd287ad72ce563b72cb7","6a270c2e609d6ae583c06396","6a270f78f401ec8e3fba9662?","69fbbd287ad72ce563b72cb7","6a270c2e609d6ae583c06396","6a270f78f401ec8e3fba9662?","30","[14,7,9,13,23,24,1,15,21,10,29,16,22,30,6,3,26,4,19,20,28,25,12,27,2,17,8,18,11,5]","[""P14"",""P7"",""U9"",""P13"",""U23"",""U24"",""U1"",""U15"",""P21"",""U10"",""P29"",""U16"",""P22"",""U30"",""P6"",""P3"",""U26"",""P4"",""U19"",""P20"",""U28"",""U25"",""U12"",""U27"",""P2"",""U17"",""P8"",""U18"",""P11"",""P5""]","[""U14"",""U7"",""P9"",""U13"",""P23"",""P24"",""P1"",""P15"",""U21"",""P10"",""U29"",""P16"",""U22"",""P30"",""U6"",""U3"",""P26"",""U4"",""P19"",""U20"",""P28"",""P25"",""P12"",""P27"",""U2"",""P17"",""U8"",""P18"",""U11"",""U5""]","4","4","0","0","1","1","","null","[""getting_ready_v1.mp4""]","null","demo_video","","","","","","","4","demo4","getting_ready_v1.mp4","getting_ready","Demo","[35.413313,24.319979,11.584746,35.413313,24.319979,31.312249,35.413313,24.319979,43.340553]","9","","","","","","","","","","","","","","","","","",""
"","","","","","call-function","23","2.0.0","535436","90","1","2026-06-08 18:52:47","segmentation_norming_randomized_order_maxrun_attention_v4","51.146.137.77","Mozilla/5.0 (Windows NT 10.0; Win64; x64) AppleWebKit/537.36 (KHTML, like Gecko) Chrome/146.0.0.0 Safari/537.36","WebKit","Chrome","146.0.0.0","Windows","10.0","https://uencdihehs.cognition.run/?PROLIFIC_PID=69fbbd287ad72ce563b72cb7&STUDY_ID=6a270c2e609d6ae583c06396&STUDY_ID=6a270c2e609d6ae583c06396&SESSION_ID=6a270f78f401ec8e3fba9662?PROLIFIC_PID=69fbbd287ad72ce563b72cb7&SESSION_ID=6a270f78f401ec8e3fba9662?","en-GB,en;q=0.9","69fbbd287ad72ce563b72cb7","6a270c2e609d6ae583c06396","6a270f78f401ec8e3fba9662?","69fbbd287ad72ce563b72cb7","6a270c2e609d6ae583c06396","6a270f78f401ec8e3fba9662?","30","[14,7,9,13,23,24,1,15,21,10,29,16,22,30,6,3,26,4,19,20,28,25,12,27,2,17,8,18,11,5]","[""P14"",""P7"",""U9"",""P13"",""U23"",""U24"",""U1"",""U15"",""P21"",""U10"",""P29"",""U16"",""P22"",""U30"",""P6"",""P3"",""U26"",""P4"",""U19"",""P20"",""U28"",""U25"",""U12"",""U27"",""P2"",""U17"",""P8"",""U18"",""P11"",""P5""]","[""U14"",""U7"",""P9"",""U13"",""P23"",""P24"",""P1"",""P15"",""U21"",""P10"",""U29"",""P16"",""U22"",""P30"",""U6"",""U3"",""P26"",""U4"",""P19"",""U20"",""P28"",""P25"",""P12"",""P27"",""U2"",""P17"",""U8"",""P18"",""U11"",""U5""]","4","4","0","0","1","1","","","","","","","","","","","","","","","","","","","","","","","","","","","","","","","","","","","",""
"","","","","","html-button-response","24","2.0.0","550017","90","1","2026-06-08 18:52:47","segmentation_norming_randomized_order_maxrun_attention_v4","51.146.137.77","Mozilla/5.0 (Windows NT 10.0; Win64; x64) AppleWebKit/537.36 (KHTML, like Gecko) Chrome/146.0.0.0 Safari/537.36","WebKit","Chrome","146.0.0.0","Windows","10.0","https://uencdihehs.cognition.run/?PROLIFIC_PID=69fbbd287ad72ce563b72cb7&STUDY_ID=6a270c2e609d6ae583c06396&STUDY_ID=6a270c2e609d6ae583c06396&SESSION_ID=6a270f78f401ec8e3fba9662?PROLIFIC_PID=69fbbd287ad72ce563b72cb7&SESSION_ID=6a270f78f401ec8e3fba9662?","en-GB,en;q=0.9","69fbbd287ad72ce563b72cb7","6a270c2e609d6ae583c06396","6a270f78f401ec8e3fba9662?","69fbbd287ad72ce563b72cb7","6a270c2e609d6ae583c06396","6a270f78f401ec8e3fba9662?","30","[14,7,9,13,23,24,1,15,21,10,29,16,22,30,6,3,26,4,19,20,28,25,12,27,2,17,8,18,11,5]","[""P14"",""P7"",""U9"",""P13"",""U23"",""U24"",""U1"",""U15"",""P21"",""U10"",""P29"",""U16"",""P22"",""U30"",""P6"",""P3"",""U26"",""P4"",""U19"",""P20"",""U28"",""U25"",""U12"",""U27"",""P2"",""U17"",""P8"",""U18"",""P11"",""P5""]","[""U14"",""U7"",""P9"",""U13"",""P23"",""P24"",""P1"",""P15"",""U21"",""P10"",""U29"",""P16"",""U22"",""P30"",""U6"",""U3"",""P26"",""U4"",""P19"",""U20"",""P28"",""P25"",""P12"",""P27"",""U2"",""P17"",""U8"",""P18"",""U11"",""U5""]","4","4","0","0","1","1","","14580","Great! Hopefully you got an idea of what a meaningful unit is.<br><br>Remember that there is no right or wrong answer.<br><br>We just want to know which parts of the activity seem natural and meaningful to you.<br><br>Now the main experiment starts.<br><br>For each clip, while watching, remember to press the SPACE BAR whenever one <strong>smallest meaningful unit</strong> of activity ends and another begins.<br><br>","0","demo_feedback","","","","","","","","","","","","","","","","","","","","","","","","","","","","","","",""
"true","false","[]","[]","[]","preload","25","2.0.0","712717","90","1","2026-06-08 18:52:47","segmentation_norming_randomized_order_maxrun_attention_v4","51.146.137.77","Mozilla/5.0 (Windows NT 10.0; Win64; x64) AppleWebKit/537.36 (KHTML, like Gecko) Chrome/146.0.0.0 Safari/537.36","WebKit","Chrome","146.0.0.0","Windows","10.0","https://uencdihehs.cognition.run/?PROLIFIC_PID=69fbbd287ad72ce563b72cb7&STUDY_ID=6a270c2e609d6ae583c06396&STUDY_ID=6a270c2e609d6ae583c06396&SESSION_ID=6a270f78f401ec8e3fba9662?PROLIFIC_PID=69fbbd287ad72ce563b72cb7&SESSION_ID=6a270f78f401ec8e3fba9662?","en-GB,en;q=0.9","69fbbd287ad72ce563b72cb7","6a270c2e609d6ae583c06396","6a270f78f401ec8e3fba9662?","69fbbd287ad72ce563b72cb7","6a270c2e609d6ae583c06396","6a270f78f401ec8e3fba9662?","30","[14,7,9,13,23,24,1,15,21,10,29,16,22,30,6,3,26,4,19,20,28,25,12,27,2,17,8,18,11,5]","[""P14"",""P7"",""U9"",""P13"",""U23"",""U24"",""U1"",""U15"",""P21"",""U10"",""P29"",""U16"",""P22"",""U30"",""P6"",""P3"",""U26"",""P4"",""U19"",""P20"",""U28"",""U25"",""U12"",""U27"",""P2"",""U17"",""P8"",""U18"",""P11"",""P5""]","[""U14"",""U7"",""P9"",""U13"",""P23"",""P24"",""P1"",""P15"",""U21"",""P10"",""U29"",""P16"",""U22"",""P30"",""U6"",""U3"",""P26"",""U4"",""P19"",""U20"",""P28"",""P25"",""P12"",""P27"",""U2"",""P17"",""U8"",""P18"",""U11"",""U5""]","4","4","0","0","1","1","","","","","","","","","","","","","","","","","","","","","","","","","","","","","","","","","","","",""
"","","","","","video-keyboard-response","26","2.0.0","742681","90","1","2026-06-08 18:52:47","segmentation_norming_randomized_order_maxrun_attention_v4","51.146.137.77","Mozilla/5.0 (Windows NT 10.0; Win64; x64) AppleWebKit/537.36 (KHTML, like Gecko) Chrome/146.0.0.0 Safari/537.36","WebKit","Chrome","146.0.0.0","Windows","10.0","https://uencdihehs.cognition.run/?PROLIFIC_PID=69fbbd287ad72ce563b72cb7&STUDY_ID=6a270c2e609d6ae583c06396&STUDY_ID=6a270c2e609d6ae583c06396&SESSION_ID=6a270f78f401ec8e3fba9662?PROLIFIC_PID=69fbbd287ad72ce563b72cb7&SESSION_ID=6a270f78f401ec8e3fba9662?","en-GB,en;q=0.9","69fbbd287ad72ce563b72cb7","6a270c2e609d6ae583c06396","6a270f78f401ec8e3fba9662?","69fbbd287ad72ce563b72cb7","6a270c2e609d6ae583c06396","6a270f78f401ec8e3fba9662?","30","[14,7,9,13,23,24,1,15,21,10,29,16,22,30,6,3,26,4,19,20,28,25,12,27,2,17,8,18,11,5]","[""P14"",""P7"",""U9"",""P13"",""U23"",""U24"",""U1"",""U15"",""P21"",""U10"",""P29"",""U16"",""P22"",""U30"",""P6"",""P3"",""U26"",""P4"",""U19"",""P20"",""U28"",""U25"",""U12"",""U27"",""P2"",""U17"",""P8"",""U18"",""P11"",""P5""]","[""U14"",""U7"",""P9"",""U13"",""P23"",""P24"",""P1"",""P15"",""U21"",""P10"",""U29"",""P16"",""U22"",""P30"",""U6"",""U3"",""P26"",""U4"",""P19"",""U20"",""P28"",""P25"",""P12"",""P27"",""U2"",""P17"",""U8"",""P18"",""U11"",""U5""]","4","4","0","0","1","1","","null","[""lamp_v1.mp4""]","null","segmentation_video","","","","","","","","","lamp_v1.mp4","lamp","Predictable","[5.607922,14.060091,23.175159]","3","","P14","14","1","1","8.452169","false","false","false","","false","0","0","false","false","false","false",""
"","","","","","survey-multi-choice","29","2.0.0","751683","90","1","2026-06-08 18:52:47","segmentation_norming_randomized_order_maxrun_attention_v4","51.146.137.77","Mozilla/5.0 (Windows NT 10.0; Win64; x64) AppleWebKit/537.36 (KHTML, like Gecko) Chrome/146.0.0.0 Safari/537.36","WebKit","Chrome","146.0.0.0","Windows","10.0","https://uencdihehs.cognition.run/?PROLIFIC_PID=69fbbd287ad72ce563b72cb7&STUDY_ID=6a270c2e609d6ae583c06396&STUDY_ID=6a270c2e609d6ae583c06396&SESSION_ID=6a270f78f401ec8e3fba9662?PROLIFIC_PID=69fbbd287ad72ce563b72cb7&SESSION_ID=6a270f78f401ec8e3fba9662?","en-GB,en;q=0.9","69fbbd287ad72ce563b72cb7","6a270c2e609d6ae583c06396","6a270f78f401ec8e3fba9662?","69fbbd287ad72ce563b72cb7","6a270c2e609d6ae583c06396","6a270f78f401ec8e3fba9662?","30","[14,7,9,13,23,24,1,15,21,10,29,16,22,30,6,3,26,4,19,20,28,25,12,27,2,17,8,18,11,5]","[""P14"",""P7"",""U9"",""P13"",""U23"",""U24"",""U1"",""U15"",""P21"",""U10"",""P29"",""U16"",""P22"",""U30"",""P6"",""P3"",""U26"",""P4"",""U19"",""P20"",""U28"",""U25"",""U12"",""U27"",""P2"",""U17"",""P8"",""U18"",""P11"",""P5""]","[""U14"",""U7"",""P9"",""U13"",""P23"",""P24"",""P1"",""P15"",""U21"",""P10"",""U29"",""P16"",""U22"",""P30"",""U6"",""U3"",""P26"",""U4"",""P19"",""U20"",""P28"",""P25"",""P12"",""P27"",""U2"",""P17"",""U8"",""P18"",""U11"",""U5""]","4","4","0","0","1","1","","9000","","{""confidence_rating"":""Very confident""}","confidence_question","[0]","","","","","","","","","lamp","Predictable","","","","P14","14","1","1","","","","","","","","","","","","","Very confident"
"","","","","","video-keyboard-response","30","2.0.0","781121","90","1","2026-06-08 18:52:47","segmentation_norming_randomized_order_maxrun_attention_v4","51.146.137.77","Mozilla/5.0 (Windows NT 10.0; Win64; x64) AppleWebKit/537.36 (KHTML, like Gecko) Chrome/146.0.0.0 Safari/537.36","WebKit","Chrome","146.0.0.0","Windows","10.0","https://uencdihehs.cognition.run/?PROLIFIC_PID=69fbbd287ad72ce563b72cb7&STUDY_ID=6a270c2e609d6ae583c06396&STUDY_ID=6a270c2e609d6ae583c06396&SESSION_ID=6a270f78f401ec8e3fba9662?PROLIFIC_PID=69fbbd287ad72ce563b72cb7&SESSION_ID=6a270f78f401ec8e3fba9662?","en-GB,en;q=0.9","69fbbd287ad72ce563b72cb7","6a270c2e609d6ae583c06396","6a270f78f401ec8e3fba9662?","69fbbd287ad72ce563b72cb7","6a270c2e609d6ae583c06396","6a270f78f401ec8e3fba9662?","30","[14,7,9,13,23,24,1,15,21,10,29,16,22,30,6,3,26,4,19,20,28,25,12,27,2,17,8,18,11,5]","[""P14"",""P7"",""U9"",""P13"",""U23"",""U24"",""U1"",""U15"",""P21"",""U10"",""P29"",""U16"",""P22"",""U30"",""P6"",""P3"",""U26"",""P4"",""U19"",""P20"",""U28"",""U25"",""U12"",""U27"",""P2"",""U17"",""P8"",""U18"",""P11"",""P5""]","[""U14"",""U7"",""P9"",""U13"",""P23"",""P24"",""P1"",""P15"",""U21"",""P10"",""U29"",""P16"",""U22"",""P30"",""U6"",""U3"",""P26"",""U4"",""P19"",""U20"",""P28"",""P25"",""P12"",""P27"",""U2"",""P17"",""U8"",""P18"",""U11"",""U5""]","4","4","0","0","1","1","","null","[""bike_v1.mp4""]","null","segmentation_video","","","","","","","","","bike_v1.mp4","bike","Predictable","[6.629394,12.627321,16.422107,22.191094]","4","","P7","7","1","2","3.794786","false","false","false","","false","0","0","false","false","false","false",""
"","","","","","survey-multi-choice","33","2.0.0","786597","90","1","2026-06-08 18:52:47","segmentation_norming_randomized_order_maxrun_attention_v4","51.146.137.77","Mozilla/5.0 (Windows NT 10.0; Win64; x64) AppleWebKit/537.36 (KHTML, like Gecko) Chrome/146.0.0.0 Safari/537.36","WebKit","Chrome","146.0.0.0","Windows","10.0","https://uencdihehs.cognition.run/?PROLIFIC_PID=69fbbd287ad72ce563b72cb7&STUDY_ID=6a270c2e609d6ae583c06396&STUDY_ID=6a270c2e609d6ae583c06396&SESSION_ID=6a270f78f401ec8e3fba9662?PROLIFIC_PID=69fbbd287ad72ce563b72cb7&SESSION_ID=6a270f78f401ec8e3fba9662?","en-GB,en;q=0.9","69fbbd287ad72ce563b72cb7","6a270c2e609d6ae583c06396","6a270f78f401ec8e3fba9662?","69fbbd287ad72ce563b72cb7","6a270c2e609d6ae583c06396","6a270f78f401ec8e3fba9662?","30","[14,7,9,13,23,24,1,15,21,10,29,16,22,30,6,3,26,4,19,20,28,25,12,27,2,17,8,18,11,5]","[""P14"",""P7"",""U9"",""P13"",""U23"",""U24"",""U1"",""U15"",""P21"",""U10"",""P29"",""U16"",""P22"",""U30"",""P6"",""P3"",""U26"",""P4"",""U19"",""P20"",""U28"",""U25"",""U12"",""U27"",""P2"",""U17"",""P8"",""U18"",""P11"",""P5""]","[""U14"",""U7"",""P9"",""U13"",""P23"",""P24"",""P1"",""P15"",""U21"",""P10"",""U29"",""P16"",""U22"",""P30"",""U6"",""U3"",""P26"",""U4"",""P19"",""U20"",""P28"",""P25"",""P12"",""P27"",""U2"",""P17"",""U8"",""P18"",""U11"",""U5""]","4","4","0","0","1","1","","5474","","{""confidence_rating"":""Very confident""}","confidence_question","[0]","","","","","","","","","bike","Predictable","","","","P7","7","1","2","","","","","","","","","","","","","Very confident"
"","","","","","video-keyboard-response","34","2.0.0","824421","90","1","2026-06-08 18:52:47","segmentation_norming_randomized_order_maxrun_attention_v4","51.146.137.77","Mozilla/5.0 (Windows NT 10.0; Win64; x64) AppleWebKit/537.36 (KHTML, like Gecko) Chrome/146.0.0.0 Safari/537.36","WebKit","Chrome","146.0.0.0","Windows","10.0","https://uencdihehs.cognition.run/?PROLIFIC_PID=69fbbd287ad72ce563b72cb7&STUDY_ID=6a270c2e609d6ae583c06396&STUDY_ID=6a270c2e609d6ae583c06396&SESSION_ID=6a270f78f401ec8e3fba9662?PROLIFIC_PID=69fbbd287ad72ce563b72cb7&SESSION_ID=6a270f78f401ec8e3fba9662?","en-GB,en;q=0.9","69fbbd287ad72ce563b72cb7","6a270c2e609d6ae583c06396","6a270f78f401ec8e3fba9662?","69fbbd287ad72ce563b72cb7","6a270c2e609d6ae583c06396","6a270f78f401ec8e3fba9662?","30","[14,7,9,13,23,24,1,15,21,10,29,16,22,30,6,3,26,4,19,20,28,25,12,27,2,17,8,18,11,5]","[""P14"",""P7"",""U9"",""P13"",""U23"",""U24"",""U1"",""U15"",""P21"",""U10"",""P29"",""U16"",""P22"",""U30"",""P6"",""P3"",""U26"",""P4"",""U19"",""P20"",""U28"",""U25"",""U12"",""U27"",""P2"",""U17"",""P8"",""U18"",""P11"",""P5""]","[""U14"",""U7"",""P9"",""U13"",""P23"",""P24"",""P1"",""P15"",""U21"",""P10"",""U29"",""P16"",""U22"",""P30"",""U6"",""U3"",""P26"",""U4"",""P19"",""U20"",""P28"",""P25"",""P12"",""P27"",""U2"",""P17"",""U8"",""P18"",""U11"",""U5""]","4","4","0","0","1","1","","null","[""cereal_v2.mp4""]","null","segmentation_video","","","","","","","","","cereal_v2.mp4","cereal","Unpredictable","[14.675864,22.461862,32.914395,35.966192]","4","","U9","9","1","3","3.0517970000000005","false","false","false","","false","0","0","false","false","false","false",""
"","","","","","survey-multi-choice","37","2.0.0","830668","90","1","2026-06-08 18:52:47","segmentation_norming_randomized_order_maxrun_attention_v4","51.146.137.77","Mozilla/5.0 (Windows NT 10.0; Win64; x64) AppleWebKit/537.36 (KHTML, like Gecko) Chrome/146.0.0.0 Safari/537.36","WebKit","Chrome","146.0.0.0","Windows","10.0","https://uencdihehs.cognition.run/?PROLIFIC_PID=69fbbd287ad72ce563b72cb7&STUDY_ID=6a270c2e609d6ae583c06396&STUDY_ID=6a270c2e609d6ae583c06396&SESSION_ID=6a270f78f401ec8e3fba9662?PROLIFIC_PID=69fbbd287ad72ce563b72cb7&SESSION_ID=6a270f78f401ec8e3fba9662?","en-GB,en;q=0.9","69fbbd287ad72ce563b72cb7","6a270c2e609d6ae583c06396","6a270f78f401ec8e3fba9662?","69fbbd287ad72ce563b72cb7","6a270c2e609d6ae583c06396","6a270f78f401ec8e3fba9662?","30","[14,7,9,13,23,24,1,15,21,10,29,16,22,30,6,3,26,4,19,20,28,25,12,27,2,17,8,18,11,5]","[""P14"",""P7"",""U9"",""P13"",""U23"",""U24"",""U1"",""U15"",""P21"",""U10"",""P29"",""U16"",""P22"",""U30"",""P6"",""P3"",""U26"",""P4"",""U19"",""P20"",""U28"",""U25"",""U12"",""U27"",""P2"",""U17"",""P8"",""U18"",""P11"",""P5""]","[""U14"",""U7"",""P9"",""U13"",""P23"",""P24"",""P1"",""P15"",""U21"",""P10"",""U29"",""P16"",""U22"",""P30"",""U6"",""U3"",""P26"",""U4"",""P19"",""U20"",""P28"",""P25"",""P12"",""P27"",""U2"",""P17"",""U8"",""P18"",""U11"",""U5""]","4","4","0","0","1","1","","6245","","{""confidence_rating"":""Very confident""}","confidence_question","[0]","","","","","","","","","cereal","Unpredictable","","","","U9","9","1","3","","","","","","","","","","","","","Very confident"
"","","","","","video-keyboard-response","38","2.0.0","860102","90","1","2026-06-08 18:52:47","segmentation_norming_randomized_order_maxrun_attention_v4","51.146.137.77","Mozilla/5.0 (Windows NT 10.0; Win64; x64) AppleWebKit/537.36 (KHTML, like Gecko) Chrome/146.0.0.0 Safari/537.36","WebKit","Chrome","146.0.0.0","Windows","10.0","https://uencdihehs.cognition.run/?PROLIFIC_PID=69fbbd287ad72ce563b72cb7&STUDY_ID=6a270c2e609d6ae583c06396&STUDY_ID=6a270c2e609d6ae583c06396&SESSION_ID=6a270f78f401ec8e3fba9662?PROLIFIC_PID=69fbbd287ad72ce563b72cb7&SESSION_ID=6a270f78f401ec8e3fba9662?","en-GB,en;q=0.9","69fbbd287ad72ce563b72cb7","6a270c2e609d6ae583c06396","6a270f78f401ec8e3fba9662?","69fbbd287ad72ce563b72cb7","6a270c2e609d6ae583c06396","6a270f78f401ec8e3fba9662?","30","[14,7,9,13,23,24,1,15,21,10,29,16,22,30,6,3,26,4,19,20,28,25,12,27,2,17,8,18,11,5]","[""P14"",""P7"",""U9"",""P13"",""U23"",""U24"",""U1"",""U15"",""P21"",""U10"",""P29"",""U16"",""P22"",""U30"",""P6"",""P3"",""U26"",""P4"",""U19"",""P20"",""U28"",""U25"",""U12"",""U27"",""P2"",""U17"",""P8"",""U18"",""P11"",""P5""]","[""U14"",""U7"",""P9"",""U13"",""P23"",""P24"",""P1"",""P15"",""U21"",""P10"",""U29"",""P16"",""U22"",""P30"",""U6"",""U3"",""P26"",""U4"",""P19"",""U20"",""P28"",""P25"",""P12"",""P27"",""U2"",""P17"",""U8"",""P18"",""U11"",""U5""]","4","4","0","0","1","1","","null","[""gym_v1.mp4""]","null","segmentation_video","","","","","","","","","gym_v1.mp4","gym","Predictable","[4.197076,8.894088,12.787729]","3","","P13","13","1","4","3.8936410000000006","false","false","false","","false","0","0","false","false","false","false",""
"","","","","","survey-multi-choice","41","2.0.0","866733","90","1","2026-06-08 18:52:47","segmentation_norming_randomized_order_maxrun_attention_v4","51.146.137.77","Mozilla/5.0 (Windows NT 10.0; Win64; x64) AppleWebKit/537.36 (KHTML, like Gecko) Chrome/146.0.0.0 Safari/537.36","WebKit","Chrome","146.0.0.0","Windows","10.0","https://uencdihehs.cognition.run/?PROLIFIC_PID=69fbbd287ad72ce563b72cb7&STUDY_ID=6a270c2e609d6ae583c06396&STUDY_ID=6a270c2e609d6ae583c06396&SESSION_ID=6a270f78f401ec8e3fba9662?PROLIFIC_PID=69fbbd287ad72ce563b72cb7&SESSION_ID=6a270f78f401ec8e3fba9662?","en-GB,en;q=0.9","69fbbd287ad72ce563b72cb7","6a270c2e609d6ae583c06396","6a270f78f401ec8e3fba9662?","69fbbd287ad72ce563b72cb7","6a270c2e609d6ae583c06396","6a270f78f401ec8e3fba9662?","30","[14,7,9,13,23,24,1,15,21,10,29,16,22,30,6,3,26,4,19,20,28,25,12,27,2,17,8,18,11,5]","[""P14"",""P7"",""U9"",""P13"",""U23"",""U24"",""U1"",""U15"",""P21"",""U10"",""P29"",""U16"",""P22"",""U30"",""P6"",""P3"",""U26"",""P4"",""U19"",""P20"",""U28"",""U25"",""U12"",""U27"",""P2"",""U17"",""P8"",""U18"",""P11"",""P5""]","[""U14"",""U7"",""P9"",""U13"",""P23"",""P24"",""P1"",""P15"",""U21"",""P10"",""U29"",""P16"",""U22"",""P30"",""U6"",""U3"",""P26"",""U4"",""P19"",""U20"",""P28"",""P25"",""P12"",""P27"",""U2"",""P17"",""U8"",""P18"",""U11"",""U5""]","4","4","0","0","1","1","","6629","","{""confidence_rating"":""Moderately confident""}","confidence_question","[0]","","","","","","","","","gym","Predictable","","","","P13","13","1","4","","","","","","","","","","","","","Moderately confident"
"","","","","","video-keyboard-response","42","2.0.0","878642","90","1","2026-06-08 18:52:47","segmentation_norming_randomized_order_maxrun_attention_v4","51.146.137.77","Mozilla/5.0 (Windows NT 10.0; Win64; x64) AppleWebKit/537.36 (KHTML, like Gecko) Chrome/146.0.0.0 Safari/537.36","WebKit","Chrome","146.0.0.0","Windows","10.0","https://uencdihehs.cognition.run/?PROLIFIC_PID=69fbbd287ad72ce563b72cb7&STUDY_ID=6a270c2e609d6ae583c06396&STUDY_ID=6a270c2e609d6ae583c06396&SESSION_ID=6a270f78f401ec8e3fba9662?PROLIFIC_PID=69fbbd287ad72ce563b72cb7&SESSION_ID=6a270f78f401ec8e3fba9662?","en-GB,en;q=0.9","69fbbd287ad72ce563b72cb7","6a270c2e609d6ae583c06396","6a270f78f401ec8e3fba9662?","69fbbd287ad72ce563b72cb7","6a270c2e609d6ae583c06396","6a270f78f401ec8e3fba9662?","30","[14,7,9,13,23,24,1,15,21,10,29,16,22,30,6,3,26,4,19,20,28,25,12,27,2,17,8,18,11,5]","[""P14"",""P7"",""U9"",""P13"",""U23"",""U24"",""U1"",""U15"",""P21"",""U10"",""P29"",""U16"",""P22"",""U30"",""P6"",""P3"",""U26"",""P4"",""U19"",""P20"",""U28"",""U25"",""U12"",""U27"",""P2"",""U17"",""P8"",""U18"",""P11"",""P5""]","[""U14"",""U7"",""P9"",""U13"",""P23"",""P24"",""P1"",""P15"",""U21"",""P10"",""U29"",""P16"",""U22"",""P30"",""U6"",""U3"",""P26"",""U4"",""P19"",""U20"",""P28"",""P25"",""P12"",""P27"",""U2"",""P17"",""U8"",""P18"",""U11"",""U5""]","4","4","0","0","1","1","","null","[""shopping_v2.mp4""]","null","segmentation_video","","","","","","","","","shopping_v2.mp4","shopping","Unpredictable","[10.154242]","1","","U23","23","1","5","null","false","false","false","","false","0","0","false","false","false","false",""
"","","","","","survey-multi-choice","45","2.0.0","881477","90","1","2026-06-08 18:52:47","segmentation_norming_randomized_order_maxrun_attention_v4","51.146.137.77","Mozilla/5.0 (Windows NT 10.0; Win64; x64) AppleWebKit/537.36 (KHTML, like Gecko) Chrome/146.0.0.0 Safari/537.36","WebKit","Chrome","146.0.0.0","Windows","10.0","https://uencdihehs.cognition.run/?PROLIFIC_PID=69fbbd287ad72ce563b72cb7&STUDY_ID=6a270c2e609d6ae583c06396&STUDY_ID=6a270c2e609d6ae583c06396&SESSION_ID=6a270f78f401ec8e3fba9662?PROLIFIC_PID=69fbbd287ad72ce563b72cb7&SESSION_ID=6a270f78f401ec8e3fba9662?","en-GB,en;q=0.9","69fbbd287ad72ce563b72cb7","6a270c2e609d6ae583c06396","6a270f78f401ec8e3fba9662?","69fbbd287ad72ce563b72cb7","6a270c2e609d6ae583c06396","6a270f78f401ec8e3fba9662?","30","[14,7,9,13,23,24,1,15,21,10,29,16,22,30,6,3,26,4,19,20,28,25,12,27,2,17,8,18,11,5]","[""P14"",""P7"",""U9"",""P13"",""U23"",""U24"",""U1"",""U15"",""P21"",""U10"",""P29"",""U16"",""P22"",""U30"",""P6"",""P3"",""U26"",""P4"",""U19"",""P20"",""U28"",""U25"",""U12"",""U27"",""P2"",""U17"",""P8"",""U18"",""P11"",""P5""]","[""U14"",""U7"",""P9"",""U13"",""P23"",""P24"",""P1"",""P15"",""U21"",""P10"",""U29"",""P16"",""U22"",""P30"",""U6"",""U3"",""P26"",""U4"",""P19"",""U20"",""P28"",""P25"",""P12"",""P27"",""U2"",""P17"",""U8"",""P18"",""U11"",""U5""]","4","4","0","0","1","1","","2833","","{""confidence_rating"":""Very confident""}","confidence_question","[0]","","","","","","","","","shopping","Unpredictable","","","","U23","23","1","5","","","","","","","","","","","","","Very confident"
"","","","","","video-keyboard-response","46","2.0.0","905703","90","1","2026-06-08 18:52:47","segmentation_norming_randomized_order_maxrun_attention_v4","51.146.137.77","Mozilla/5.0 (Windows NT 10.0; Win64; x64) AppleWebKit/537.36 (KHTML, like Gecko) Chrome/146.0.0.0 Safari/537.36","WebKit","Chrome","146.0.0.0","Windows","10.0","https://uencdihehs.cognition.run/?PROLIFIC_PID=69fbbd287ad72ce563b72cb7&STUDY_ID=6a270c2e609d6ae583c06396&STUDY_ID=6a270c2e609d6ae583c06396&SESSION_ID=6a270f78f401ec8e3fba9662?PROLIFIC_PID=69fbbd287ad72ce563b72cb7&SESSION_ID=6a270f78f401ec8e3fba9662?","en-GB,en;q=0.9","69fbbd287ad72ce563b72cb7","6a270c2e609d6ae583c06396","6a270f78f401ec8e3fba9662?","69fbbd287ad72ce563b72cb7","6a270c2e609d6ae583c06396","6a270f78f401ec8e3fba9662?","30","[14,7,9,13,23,24,1,15,21,10,29,16,22,30,6,3,26,4,19,20,28,25,12,27,2,17,8,18,11,5]","[""P14"",""P7"",""U9"",""P13"",""U23"",""U24"",""U1"",""U15"",""P21"",""U10"",""P29"",""U16"",""P22"",""U30"",""P6"",""P3"",""U26"",""P4"",""U19"",""P20"",""U28"",""U25"",""U12"",""U27"",""P2"",""U17"",""P8"",""U18"",""P11"",""P5""]","[""U14"",""U7"",""P9"",""U13"",""P23"",""P24"",""P1"",""P15"",""U21"",""P10"",""U29"",""P16"",""U22"",""P30"",""U6"",""U3"",""P26"",""U4"",""P19"",""U20"",""P28"",""P25"",""P12"",""P27"",""U2"",""P17"",""U8"",""P18"",""U11"",""U5""]","4","4","0","0","1","1","","null","[""skateboard_v2.mp4""]","null","segmentation_video","","","","","","","","","skateboard_v2.mp4","skateboard","Unpredictable","[9.81888,20.489634]","2","","U24","24","1","6","10.670753999999999","false","false","false","","false","0","0","false","false","false","false",""
"","","","","","survey-multi-choice","49","2.0.0","908990","90","1","2026-06-08 18:52:47","segmentation_norming_randomized_order_maxrun_attention_v4","51.146.137.77","Mozilla/5.0 (Windows NT 10.0; Win64; x64) AppleWebKit/537.36 (KHTML, like Gecko) Chrome/146.0.0.0 Safari/537.36","WebKit","Chrome","146.0.0.0","Windows","10.0","https://uencdihehs.cognition.run/?PROLIFIC_PID=69fbbd287ad72ce563b72cb7&STUDY_ID=6a270c2e609d6ae583c06396&STUDY_ID=6a270c2e609d6ae583c06396&SESSION_ID=6a270f78f401ec8e3fba9662?PROLIFIC_PID=69fbbd287ad72ce563b72cb7&SESSION_ID=6a270f78f401ec8e3fba9662?","en-GB,en;q=0.9","69fbbd287ad72ce563b72cb7","6a270c2e609d6ae583c06396","6a270f78f401ec8e3fba9662?","69fbbd287ad72ce563b72cb7","6a270c2e609d6ae583c06396","6a270f78f401ec8e3fba9662?","30","[14,7,9,13,23,24,1,15,21,10,29,16,22,30,6,3,26,4,19,20,28,25,12,27,2,17,8,18,11,5]","[""P14"",""P7"",""U9"",""P13"",""U23"",""U24"",""U1"",""U15"",""P21"",""U10"",""P29"",""U16"",""P22"",""U30"",""P6"",""P3"",""U26"",""P4"",""U19"",""P20"",""U28"",""U25"",""U12"",""U27"",""P2"",""U17"",""P8"",""U18"",""P11"",""P5""]","[""U14"",""U7"",""P9"",""U13"",""P23"",""P24"",""P1"",""P15"",""U21"",""P10"",""U29"",""P16"",""U22"",""P30"",""U6"",""U3"",""P26"",""U4"",""P19"",""U20"",""P28"",""P25"",""P12"",""P27"",""U2"",""P17"",""U8"",""P18"",""U11"",""U5""]","4","4","0","0","1","1","","3285","","{""confidence_rating"":""Very confident""}","confidence_question","[0]","","","","","","","","","skateboard","Unpredictable","","","","U24","24","1","6","","","","","","","","","","","","","Very confident"
"","","","","","video-keyboard-response","50","2.0.0","937863","90","1","2026-06-08 18:52:47","segmentation_norming_randomized_order_maxrun_attention_v4","51.146.137.77","Mozilla/5.0 (Windows NT 10.0; Win64; x64) AppleWebKit/537.36 (KHTML, like Gecko) Chrome/146.0.0.0 Safari/537.36","WebKit","Chrome","146.0.0.0","Windows","10.0","https://uencdihehs.cognition.run/?PROLIFIC_PID=69fbbd287ad72ce563b72cb7&STUDY_ID=6a270c2e609d6ae583c06396&STUDY_ID=6a270c2e609d6ae583c06396&SESSION_ID=6a270f78f401ec8e3fba9662?PROLIFIC_PID=69fbbd287ad72ce563b72cb7&SESSION_ID=6a270f78f401ec8e3fba9662?","en-GB,en;q=0.9","69fbbd287ad72ce563b72cb7","6a270c2e609d6ae583c06396","6a270f78f401ec8e3fba9662?","69fbbd287ad72ce563b72cb7","6a270c2e609d6ae583c06396","6a270f78f401ec8e3fba9662?","30","[14,7,9,13,23,24,1,15,21,10,29,16,22,30,6,3,26,4,19,20,28,25,12,27,2,17,8,18,11,5]","[""P14"",""P7"",""U9"",""P13"",""U23"",""U24"",""U1"",""U15"",""P21"",""U10"",""P29"",""U16"",""P22"",""U30"",""P6"",""P3"",""U26"",""P4"",""U19"",""P20"",""U28"",""U25"",""U12"",""U27"",""P2"",""U17"",""P8"",""U18"",""P11"",""P5""]","[""U14"",""U7"",""P9"",""U13"",""P23"",""P24"",""P1"",""P15"",""U21"",""P10"",""U29"",""P16"",""U22"",""P30"",""U6"",""U3"",""P26"",""U4"",""P19"",""U20"",""P28"",""P25"",""P12"",""P27"",""U2"",""P17"",""U8"",""P18"",""U11"",""U5""]","4","4","0","0","1","1","","null","[""baking_v2.mp4""]","null","segmentation_video","","","","","","","","","baking_v2.mp4","baking","Unpredictable","[3.72793,15.537005,22.159008,23.728354]","4","","U1","1","1","7","1.5693459999999995","false","false","false","","false","0","0","false","false","false","false",""
"","","","","","survey-multi-choice","53","2.0.0","942046","90","1","2026-06-08 18:52:47","segmentation_norming_randomized_order_maxrun_attention_v4","51.146.137.77","Mozilla/5.0 (Windows NT 10.0; Win64; x64) AppleWebKit/537.36 (KHTML, like Gecko) Chrome/146.0.0.0 Safari/537.36","WebKit","Chrome","146.0.0.0","Windows","10.0","https://uencdihehs.cognition.run/?PROLIFIC_PID=69fbbd287ad72ce563b72cb7&STUDY_ID=6a270c2e609d6ae583c06396&STUDY_ID=6a270c2e609d6ae583c06396&SESSION_ID=6a270f78f401ec8e3fba9662?PROLIFIC_PID=69fbbd287ad72ce563b72cb7&SESSION_ID=6a270f78f401ec8e3fba9662?","en-GB,en;q=0.9","69fbbd287ad72ce563b72cb7","6a270c2e609d6ae583c06396","6a270f78f401ec8e3fba9662?","69fbbd287ad72ce563b72cb7","6a270c2e609d6ae583c06396","6a270f78f401ec8e3fba9662?","30","[14,7,9,13,23,24,1,15,21,10,29,16,22,30,6,3,26,4,19,20,28,25,12,27,2,17,8,18,11,5]","[""P14"",""P7"",""U9"",""P13"",""U23"",""U24"",""U1"",""U15"",""P21"",""U10"",""P29"",""U16"",""P22"",""U30"",""P6"",""P3"",""U26"",""P4"",""U19"",""P20"",""U28"",""U25"",""U12"",""U27"",""P2"",""U17"",""P8"",""U18"",""P11"",""P5""]","[""U14"",""U7"",""P9"",""U13"",""P23"",""P24"",""P1"",""P15"",""U21"",""P10"",""U29"",""P16"",""U22"",""P30"",""U6"",""U3"",""P26"",""U4"",""P19"",""U20"",""P28"",""P25"",""P12"",""P27"",""U2"",""P17"",""U8"",""P18"",""U11"",""U5""]","4","4","0","0","1","1","","4181","","{""confidence_rating"":""Very confident""}","confidence_question","[0]","","","","","","","","","baking","Unpredictable","","","","U1","1","1","7","","","","","","","","","","","","","Very confident"
"","","","","","video-keyboard-response","54","2.0.0","973004","90","1","2026-06-08 18:52:47","segmentation_norming_randomized_order_maxrun_attention_v4","51.146.137.77","Mozilla/5.0 (Windows NT 10.0; Win64; x64) AppleWebKit/537.36 (KHTML, like Gecko) Chrome/146.0.0.0 Safari/537.36","WebKit","Chrome","146.0.0.0","Windows","10.0","https://uencdihehs.cognition.run/?PROLIFIC_PID=69fbbd287ad72ce563b72cb7&STUDY_ID=6a270c2e609d6ae583c06396&STUDY_ID=6a270c2e609d6ae583c06396&SESSION_ID=6a270f78f401ec8e3fba9662?PROLIFIC_PID=69fbbd287ad72ce563b72cb7&SESSION_ID=6a270f78f401ec8e3fba9662?","en-GB,en;q=0.9","69fbbd287ad72ce563b72cb7","6a270c2e609d6ae583c06396","6a270f78f401ec8e3fba9662?","69fbbd287ad72ce563b72cb7","6a270c2e609d6ae583c06396","6a270f78f401ec8e3fba9662?","30","[14,7,9,13,23,24,1,15,21,10,29,16,22,30,6,3,26,4,19,20,28,25,12,27,2,17,8,18,11,5]","[""P14"",""P7"",""U9"",""P13"",""U23"",""U24"",""U1"",""U15"",""P21"",""U10"",""P29"",""U16"",""P22"",""U30"",""P6"",""P3"",""U26"",""P4"",""U19"",""P20"",""U28"",""U25"",""U12"",""U27"",""P2"",""U17"",""P8"",""U18"",""P11"",""P5""]","[""U14"",""U7"",""P9"",""U13"",""P23"",""P24"",""P1"",""P15"",""U21"",""P10"",""U29"",""P16"",""U22"",""P30"",""U6"",""U3"",""P26"",""U4"",""P19"",""U20"",""P28"",""P25"",""P12"",""P27"",""U2"",""P17"",""U8"",""P18"",""U11"",""U5""]","4","4","0","0","1","1","","null","[""laundry_v2.mp4""]","null","segmentation_video","","","","","","","","","laundry_v2.mp4","laundry","Unpredictable","[12.54749,24.989343,29.735113]","3","","U15","15","1","8","4.745769999999997","false","false","false","","false","0","0","false","false","false","false",""
"","","","","","survey-multi-choice","57","2.0.0","976838","90","1","2026-06-08 18:52:47","segmentation_norming_randomized_order_maxrun_attention_v4","51.146.137.77","Mozilla/5.0 (Windows NT 10.0; Win64; x64) AppleWebKit/537.36 (KHTML, like Gecko) Chrome/146.0.0.0 Safari/537.36","WebKit","Chrome","146.0.0.0","Windows","10.0","https://uencdihehs.cognition.run/?PROLIFIC_PID=69fbbd287ad72ce563b72cb7&STUDY_ID=6a270c2e609d6ae583c06396&STUDY_ID=6a270c2e609d6ae583c06396&SESSION_ID=6a270f78f401ec8e3fba9662?PROLIFIC_PID=69fbbd287ad72ce563b72cb7&SESSION_ID=6a270f78f401ec8e3fba9662?","en-GB,en;q=0.9","69fbbd287ad72ce563b72cb7","6a270c2e609d6ae583c06396","6a270f78f401ec8e3fba9662?","69fbbd287ad72ce563b72cb7","6a270c2e609d6ae583c06396","6a270f78f401ec8e3fba9662?","30","[14,7,9,13,23,24,1,15,21,10,29,16,22,30,6,3,26,4,19,20,28,25,12,27,2,17,8,18,11,5]","[""P14"",""P7"",""U9"",""P13"",""U23"",""U24"",""U1"",""U15"",""P21"",""U10"",""P29"",""U16"",""P22"",""U30"",""P6"",""P3"",""U26"",""P4"",""U19"",""P20"",""U28"",""U25"",""U12"",""U27"",""P2"",""U17"",""P8"",""U18"",""P11"",""P5""]","[""U14"",""U7"",""P9"",""U13"",""P23"",""P24"",""P1"",""P15"",""U21"",""P10"",""U29"",""P16"",""U22"",""P30"",""U6"",""U3"",""P26"",""U4"",""P19"",""U20"",""P28"",""P25"",""P12"",""P27"",""U2"",""P17"",""U8"",""P18"",""U11"",""U5""]","4","4","0","0","1","1","","3833","","{""confidence_rating"":""Very confident""}","confidence_question","[0]","","","","","","","","","laundry","Unpredictable","","","","U15","15","1","8","","","","","","","","","","","","","Very confident"
"","","","","","video-keyboard-response","58","2.0.0","1021024","90","1","2026-06-08 18:52:47","segmentation_norming_randomized_order_maxrun_attention_v4","51.146.137.77","Mozilla/5.0 (Windows NT 10.0; Win64; x64) AppleWebKit/537.36 (KHTML, like Gecko) Chrome/146.0.0.0 Safari/537.36","WebKit","Chrome","146.0.0.0","Windows","10.0","https://uencdihehs.cognition.run/?PROLIFIC_PID=69fbbd287ad72ce563b72cb7&STUDY_ID=6a270c2e609d6ae583c06396&STUDY_ID=6a270c2e609d6ae583c06396&SESSION_ID=6a270f78f401ec8e3fba9662?PROLIFIC_PID=69fbbd287ad72ce563b72cb7&SESSION_ID=6a270f78f401ec8e3fba9662?","en-GB,en;q=0.9","69fbbd287ad72ce563b72cb7","6a270c2e609d6ae583c06396","6a270f78f401ec8e3fba9662?","69fbbd287ad72ce563b72cb7","6a270c2e609d6ae583c06396","6a270f78f401ec8e3fba9662?","30","[14,7,9,13,23,24,1,15,21,10,29,16,22,30,6,3,26,4,19,20,28,25,12,27,2,17,8,18,11,5]","[""P14"",""P7"",""U9"",""P13"",""U23"",""U24"",""U1"",""U15"",""P21"",""U10"",""P29"",""U16"",""P22"",""U30"",""P6"",""P3"",""U26"",""P4"",""U19"",""P20"",""U28"",""U25"",""U12"",""U27"",""P2"",""U17"",""P8"",""U18"",""P11"",""P5""]","[""U14"",""U7"",""P9"",""U13"",""P23"",""P24"",""P1"",""P15"",""U21"",""P10"",""U29"",""P16"",""U22"",""P30"",""U6"",""U3"",""P26"",""U4"",""P19"",""U20"",""P28"",""P25"",""P12"",""P27"",""U2"",""P17"",""U8"",""P18"",""U11"",""U5""]","4","4","0","0","1","1","","null","[""printer_v1.mp4""]","null","segmentation_video","","","","","","","","","printer_v1.mp4","printer","Predictable","[5.844226,11.319557,25.459222,39.685681]","4","","P21","21","1","9","5.475331","false","false","false","","false","0","0","false","false","false","false",""
"","","","","","survey-multi-choice","61","2.0.0","1028545","90","1","2026-06-08 18:52:47","segmentation_norming_randomized_order_maxrun_attention_v4","51.146.137.77","Mozilla/5.0 (Windows NT 10.0; Win64; x64) AppleWebKit/537.36 (KHTML, like Gecko) Chrome/146.0.0.0 Safari/537.36","WebKit","Chrome","146.0.0.0","Windows","10.0","https://uencdihehs.cognition.run/?PROLIFIC_PID=69fbbd287ad72ce563b72cb7&STUDY_ID=6a270c2e609d6ae583c06396&STUDY_ID=6a270c2e609d6ae583c06396&SESSION_ID=6a270f78f401ec8e3fba9662?PROLIFIC_PID=69fbbd287ad72ce563b72cb7&SESSION_ID=6a270f78f401ec8e3fba9662?","en-GB,en;q=0.9","69fbbd287ad72ce563b72cb7","6a270c2e609d6ae583c06396","6a270f78f401ec8e3fba9662?","69fbbd287ad72ce563b72cb7","6a270c2e609d6ae583c06396","6a270f78f401ec8e3fba9662?","30","[14,7,9,13,23,24,1,15,21,10,29,16,22,30,6,3,26,4,19,20,28,25,12,27,2,17,8,18,11,5]","[""P14"",""P7"",""U9"",""P13"",""U23"",""U24"",""U1"",""U15"",""P21"",""U10"",""P29"",""U16"",""P22"",""U30"",""P6"",""P3"",""U26"",""P4"",""U19"",""P20"",""U28"",""U25"",""U12"",""U27"",""P2"",""U17"",""P8"",""U18"",""P11"",""P5""]","[""U14"",""U7"",""P9"",""U13"",""P23"",""P24"",""P1"",""P15"",""U21"",""P10"",""U29"",""P16"",""U22"",""P30"",""U6"",""U3"",""P26"",""U4"",""P19"",""U20"",""P28"",""P25"",""P12"",""P27"",""U2"",""P17"",""U8"",""P18"",""U11"",""U5""]","4","4","0","0","1","1","","7519","","{""confidence_rating"":""Very confident""}","confidence_question","[0]","","","","","","","","","printer","Predictable","","","","P21","21","1","9","","","","","","","","","","","","","Very confident"
"","","","","","video-keyboard-response","62","2.0.0","1059124","90","1","2026-06-08 18:52:47","segmentation_norming_randomized_order_maxrun_attention_v4","51.146.137.77","Mozilla/5.0 (Windows NT 10.0; Win64; x64) AppleWebKit/537.36 (KHTML, like Gecko) Chrome/146.0.0.0 Safari/537.36","WebKit","Chrome","146.0.0.0","Windows","10.0","https://uencdihehs.cognition.run/?PROLIFIC_PID=69fbbd287ad72ce563b72cb7&STUDY_ID=6a270c2e609d6ae583c06396&STUDY_ID=6a270c2e609d6ae583c06396&SESSION_ID=6a270f78f401ec8e3fba9662?PROLIFIC_PID=69fbbd287ad72ce563b72cb7&SESSION_ID=6a270f78f401ec8e3fba9662?","en-GB,en;q=0.9","69fbbd287ad72ce563b72cb7","6a270c2e609d6ae583c06396","6a270f78f401ec8e3fba9662?","69fbbd287ad72ce563b72cb7","6a270c2e609d6ae583c06396","6a270f78f401ec8e3fba9662?","30","[14,7,9,13,23,24,1,15,21,10,29,16,22,30,6,3,26,4,19,20,28,25,12,27,2,17,8,18,11,5]","[""P14"",""P7"",""U9"",""P13"",""U23"",""U24"",""U1"",""U15"",""P21"",""U10"",""P29"",""U16"",""P22"",""U30"",""P6"",""P3"",""U26"",""P4"",""U19"",""P20"",""U28"",""U25"",""U12"",""U27"",""P2"",""U17"",""P8"",""U18"",""P11"",""P5""]","[""U14"",""U7"",""P9"",""U13"",""P23"",""P24"",""P1"",""P15"",""U21"",""P10"",""U29"",""P16"",""U22"",""P30"",""U6"",""U3"",""P26"",""U4"",""P19"",""U20"",""P28"",""P25"",""P12"",""P27"",""U2"",""P17"",""U8"",""P18"",""U11"",""U5""]","4","4","0","0","1","1","","null","[""cleaning_v2.mp4""]","null","segmentation_video","","","","","","","","","cleaning_v2.mp4","cleaning","Unpredictable","[6.899196,11.852298,19.069906,22.921724,29.585144]","5","","U10","10","1","10","3.8518180000000015","false","false","false","","false","0","0","false","false","false","false",""
"","","","","","survey-multi-choice","65","2.0.0","1062688","90","1","2026-06-08 18:52:47","segmentation_norming_randomized_order_maxrun_attention_v4","51.146.137.77","Mozilla/5.0 (Windows NT 10.0; Win64; x64) AppleWebKit/537.36 (KHTML, like Gecko) Chrome/146.0.0.0 Safari/537.36","WebKit","Chrome","146.0.0.0","Windows","10.0","https://uencdihehs.cognition.run/?PROLIFIC_PID=69fbbd287ad72ce563b72cb7&STUDY_ID=6a270c2e609d6ae583c06396&STUDY_ID=6a270c2e609d6ae583c06396&SESSION_ID=6a270f78f401ec8e3fba9662?PROLIFIC_PID=69fbbd287ad72ce563b72cb7&SESSION_ID=6a270f78f401ec8e3fba9662?","en-GB,en;q=0.9","69fbbd287ad72ce563b72cb7","6a270c2e609d6ae583c06396","6a270f78f401ec8e3fba9662?","69fbbd287ad72ce563b72cb7","6a270c2e609d6ae583c06396","6a270f78f401ec8e3fba9662?","30","[14,7,9,13,23,24,1,15,21,10,29,16,22,30,6,3,26,4,19,20,28,25,12,27,2,17,8,18,11,5]","[""P14"",""P7"",""U9"",""P13"",""U23"",""U24"",""U1"",""U15"",""P21"",""U10"",""P29"",""U16"",""P22"",""U30"",""P6"",""P3"",""U26"",""P4"",""U19"",""P20"",""U28"",""U25"",""U12"",""U27"",""P2"",""U17"",""P8"",""U18"",""P11"",""P5""]","[""U14"",""U7"",""P9"",""U13"",""P23"",""P24"",""P1"",""P15"",""U21"",""P10"",""U29"",""P16"",""U22"",""P30"",""U6"",""U3"",""P26"",""U4"",""P19"",""U20"",""P28"",""P25"",""P12"",""P27"",""U2"",""P17"",""U8"",""P18"",""U11"",""U5""]","4","4","0","0","1","1","","3562","","{""confidence_rating"":""Very confident""}","confidence_question","[0]","","","","","","","","","cleaning","Unpredictable","","","","U10","10","1","10","","","","","","","","","","","","","Very confident"
"","","","","","video-keyboard-response","66","2.0.0","1084325","90","1","2026-06-08 18:52:47","segmentation_norming_randomized_order_maxrun_attention_v4","51.146.137.77","Mozilla/5.0 (Windows NT 10.0; Win64; x64) AppleWebKit/537.36 (KHTML, like Gecko) Chrome/146.0.0.0 Safari/537.36","WebKit","Chrome","146.0.0.0","Windows","10.0","https://uencdihehs.cognition.run/?PROLIFIC_PID=69fbbd287ad72ce563b72cb7&STUDY_ID=6a270c2e609d6ae583c06396&STUDY_ID=6a270c2e609d6ae583c06396&SESSION_ID=6a270f78f401ec8e3fba9662?PROLIFIC_PID=69fbbd287ad72ce563b72cb7&SESSION_ID=6a270f78f401ec8e3fba9662?","en-GB,en;q=0.9","69fbbd287ad72ce563b72cb7","6a270c2e609d6ae583c06396","6a270f78f401ec8e3fba9662?","69fbbd287ad72ce563b72cb7","6a270c2e609d6ae583c06396","6a270f78f401ec8e3fba9662?","30","[14,7,9,13,23,24,1,15,21,10,29,16,22,30,6,3,26,4,19,20,28,25,12,27,2,17,8,18,11,5]","[""P14"",""P7"",""U9"",""P13"",""U23"",""U24"",""U1"",""U15"",""P21"",""U10"",""P29"",""U16"",""P22"",""U30"",""P6"",""P3"",""U26"",""P4"",""U19"",""P20"",""U28"",""U25"",""U12"",""U27"",""P2"",""U17"",""P8"",""U18"",""P11"",""P5""]","[""U14"",""U7"",""P9"",""U13"",""P23"",""P24"",""P1"",""P15"",""U21"",""P10"",""U29"",""P16"",""U22"",""P30"",""U6"",""U3"",""P26"",""U4"",""P19"",""U20"",""P28"",""P25"",""P12"",""P27"",""U2"",""P17"",""U8"",""P18"",""U11"",""U5""]","4","4","0","0","1","1","","null","[""walking_v1.mp4""]","null","segmentation_video","","","","","","","","","walking_v1.mp4","walking","Predictable","[10.176857,19.792445]","2","","P29","29","1","11","9.615588","false","false","false","","false","0","0","false","false","false","false",""
"","","","","","survey-multi-choice","69","2.0.0","1089024","90","1","2026-06-08 18:52:47","segmentation_norming_randomized_order_maxrun_attention_v4","51.146.137.77","Mozilla/5.0 (Windows NT 10.0; Win64; x64) AppleWebKit/537.36 (KHTML, like Gecko) Chrome/146.0.0.0 Safari/537.36","WebKit","Chrome","146.0.0.0","Windows","10.0","https://uencdihehs.cognition.run/?PROLIFIC_PID=69fbbd287ad72ce563b72cb7&STUDY_ID=6a270c2e609d6ae583c06396&STUDY_ID=6a270c2e609d6ae583c06396&SESSION_ID=6a270f78f401ec8e3fba9662?PROLIFIC_PID=69fbbd287ad72ce563b72cb7&SESSION_ID=6a270f78f401ec8e3fba9662?","en-GB,en;q=0.9","69fbbd287ad72ce563b72cb7","6a270c2e609d6ae583c06396","6a270f78f401ec8e3fba9662?","69fbbd287ad72ce563b72cb7","6a270c2e609d6ae583c06396","6a270f78f401ec8e3fba9662?","30","[14,7,9,13,23,24,1,15,21,10,29,16,22,30,6,3,26,4,19,20,28,25,12,27,2,17,8,18,11,5]","[""P14"",""P7"",""U9"",""P13"",""U23"",""U24"",""U1"",""U15"",""P21"",""U10"",""P29"",""U16"",""P22"",""U30"",""P6"",""P3"",""U26"",""P4"",""U19"",""P20"",""U28"",""U25"",""U12"",""U27"",""P2"",""U17"",""P8"",""U18"",""P11"",""P5""]","[""U14"",""U7"",""P9"",""U13"",""P23"",""P24"",""P1"",""P15"",""U21"",""P10"",""U29"",""P16"",""U22"",""P30"",""U6"",""U3"",""P26"",""U4"",""P19"",""U20"",""P28"",""P25"",""P12"",""P27"",""U2"",""P17"",""U8"",""P18"",""U11"",""U5""]","4","4","0","0","1","1","","4697","","{""confidence_rating"":""Moderately confident""}","confidence_question","[0]","","","","","","","","","walking","Predictable","","","","P29","29","1","11","","","","","","","","","","","","","Moderately confident"
"","","","","","video-keyboard-response","70","2.0.0","1118887","90","1","2026-06-08 18:52:47","segmentation_norming_randomized_order_maxrun_attention_v4","51.146.137.77","Mozilla/5.0 (Windows NT 10.0; Win64; x64) AppleWebKit/537.36 (KHTML, like Gecko) Chrome/146.0.0.0 Safari/537.36","WebKit","Chrome","146.0.0.0","Windows","10.0","https://uencdihehs.cognition.run/?PROLIFIC_PID=69fbbd287ad72ce563b72cb7&STUDY_ID=6a270c2e609d6ae583c06396&STUDY_ID=6a270c2e609d6ae583c06396&SESSION_ID=6a270f78f401ec8e3fba9662?PROLIFIC_PID=69fbbd287ad72ce563b72cb7&SESSION_ID=6a270f78f401ec8e3fba9662?","en-GB,en;q=0.9","69fbbd287ad72ce563b72cb7","6a270c2e609d6ae583c06396","6a270f78f401ec8e3fba9662?","69fbbd287ad72ce563b72cb7","6a270c2e609d6ae583c06396","6a270f78f401ec8e3fba9662?","30","[14,7,9,13,23,24,1,15,21,10,29,16,22,30,6,3,26,4,19,20,28,25,12,27,2,17,8,18,11,5]","[""P14"",""P7"",""U9"",""P13"",""U23"",""U24"",""U1"",""U15"",""P21"",""U10"",""P29"",""U16"",""P22"",""U30"",""P6"",""P3"",""U26"",""P4"",""U19"",""P20"",""U28"",""U25"",""U12"",""U27"",""P2"",""U17"",""P8"",""U18"",""P11"",""P5""]","[""U14"",""U7"",""P9"",""U13"",""P23"",""P24"",""P1"",""P15"",""U21"",""P10"",""U29"",""P16"",""U22"",""P30"",""U6"",""U3"",""P26"",""U4"",""P19"",""U20"",""P28"",""P25"",""P12"",""P27"",""U2"",""P17"",""U8"",""P18"",""U11"",""U5""]","4","4","0","0","1","1","","null","[""mouse_v2.mp4""]","null","segmentation_video","","","","","","","","","mouse_v2.mp4","mouse","Unpredictable","[4.722168,25.108491,29.718917]","3","","U16","16","1","12","4.610426","false","false","false","","false","0","0","false","false","false","false",""
"","","","","","survey-multi-choice","73","2.0.0","1122272","90","1","2026-06-08 18:52:47","segmentation_norming_randomized_order_maxrun_attention_v4","51.146.137.77","Mozilla/5.0 (Windows NT 10.0; Win64; x64) AppleWebKit/537.36 (KHTML, like Gecko) Chrome/146.0.0.0 Safari/537.36","WebKit","Chrome","146.0.0.0","Windows","10.0","https://uencdihehs.cognition.run/?PROLIFIC_PID=69fbbd287ad72ce563b72cb7&STUDY_ID=6a270c2e609d6ae583c06396&STUDY_ID=6a270c2e609d6ae583c06396&SESSION_ID=6a270f78f401ec8e3fba9662?PROLIFIC_PID=69fbbd287ad72ce563b72cb7&SESSION_ID=6a270f78f401ec8e3fba9662?","en-GB,en;q=0.9","69fbbd287ad72ce563b72cb7","6a270c2e609d6ae583c06396","6a270f78f401ec8e3fba9662?","69fbbd287ad72ce563b72cb7","6a270c2e609d6ae583c06396","6a270f78f401ec8e3fba9662?","30","[14,7,9,13,23,24,1,15,21,10,29,16,22,30,6,3,26,4,19,20,28,25,12,27,2,17,8,18,11,5]","[""P14"",""P7"",""U9"",""P13"",""U23"",""U24"",""U1"",""U15"",""P21"",""U10"",""P29"",""U16"",""P22"",""U30"",""P6"",""P3"",""U26"",""P4"",""U19"",""P20"",""U28"",""U25"",""U12"",""U27"",""P2"",""U17"",""P8"",""U18"",""P11"",""P5""]","[""U14"",""U7"",""P9"",""U13"",""P23"",""P24"",""P1"",""P15"",""U21"",""P10"",""U29"",""P16"",""U22"",""P30"",""U6"",""U3"",""P26"",""U4"",""P19"",""U20"",""P28"",""P25"",""P12"",""P27"",""U2"",""P17"",""U8"",""P18"",""U11"",""U5""]","4","4","0","0","1","1","","3382","","{""confidence_rating"":""Very confident""}","confidence_question","[0]","","","","","","","","","mouse","Unpredictable","","","","U16","16","1","12","","","","","","","","","","","","","Very confident"
"","","","","","video-keyboard-response","74","2.0.0","1141505","90","1","2026-06-08 18:52:47","segmentation_norming_randomized_order_maxrun_attention_v4","51.146.137.77","Mozilla/5.0 (Windows NT 10.0; Win64; x64) AppleWebKit/537.36 (KHTML, like Gecko) Chrome/146.0.0.0 Safari/537.36","WebKit","Chrome","146.0.0.0","Windows","10.0","https://uencdihehs.cognition.run/?PROLIFIC_PID=69fbbd287ad72ce563b72cb7&STUDY_ID=6a270c2e609d6ae583c06396&STUDY_ID=6a270c2e609d6ae583c06396&SESSION_ID=6a270f78f401ec8e3fba9662?PROLIFIC_PID=69fbbd287ad72ce563b72cb7&SESSION_ID=6a270f78f401ec8e3fba9662?","en-GB,en;q=0.9","69fbbd287ad72ce563b72cb7","6a270c2e609d6ae583c06396","6a270f78f401ec8e3fba9662?","69fbbd287ad72ce563b72cb7","6a270c2e609d6ae583c06396","6a270f78f401ec8e3fba9662?","30","[14,7,9,13,23,24,1,15,21,10,29,16,22,30,6,3,26,4,19,20,28,25,12,27,2,17,8,18,11,5]","[""P14"",""P7"",""U9"",""P13"",""U23"",""U24"",""U1"",""U15"",""P21"",""U10"",""P29"",""U16"",""P22"",""U30"",""P6"",""P3"",""U26"",""P4"",""U19"",""P20"",""U28"",""U25"",""U12"",""U27"",""P2"",""U17"",""P8"",""U18"",""P11"",""P5""]","[""U14"",""U7"",""P9"",""U13"",""P23"",""P24"",""P1"",""P15"",""U21"",""P10"",""U29"",""P16"",""U22"",""P30"",""U6"",""U3"",""P26"",""U4"",""P19"",""U20"",""P28"",""P25"",""P12"",""P27"",""U2"",""P17"",""U8"",""P18"",""U11"",""U5""]","4","4","0","0","1","1","","null","[""record_v1.mp4""]","null","segmentation_video","","","","","","","","","record_v1.mp4","record","Predictable","[11.211192,18.475211]","2","","P22","22","1","13","7.264019000000001","false","false","false","","false","0","0","false","false","false","false",""
"","","","","","survey-multi-choice","77","2.0.0","1146944","90","1","2026-06-08 18:52:47","segmentation_norming_randomized_order_maxrun_attention_v4","51.146.137.77","Mozilla/5.0 (Windows NT 10.0; Win64; x64) AppleWebKit/537.36 (KHTML, like Gecko) Chrome/146.0.0.0 Safari/537.36","WebKit","Chrome","146.0.0.0","Windows","10.0","https://uencdihehs.cognition.run/?PROLIFIC_PID=69fbbd287ad72ce563b72cb7&STUDY_ID=6a270c2e609d6ae583c06396&STUDY_ID=6a270c2e609d6ae583c06396&SESSION_ID=6a270f78f401ec8e3fba9662?PROLIFIC_PID=69fbbd287ad72ce563b72cb7&SESSION_ID=6a270f78f401ec8e3fba9662?","en-GB,en;q=0.9","69fbbd287ad72ce563b72cb7","6a270c2e609d6ae583c06396","6a270f78f401ec8e3fba9662?","69fbbd287ad72ce563b72cb7","6a270c2e609d6ae583c06396","6a270f78f401ec8e3fba9662?","30","[14,7,9,13,23,24,1,15,21,10,29,16,22,30,6,3,26,4,19,20,28,25,12,27,2,17,8,18,11,5]","[""P14"",""P7"",""U9"",""P13"",""U23"",""U24"",""U1"",""U15"",""P21"",""U10"",""P29"",""U16"",""P22"",""U30"",""P6"",""P3"",""U26"",""P4"",""U19"",""P20"",""U28"",""U25"",""U12"",""U27"",""P2"",""U17"",""P8"",""U18"",""P11"",""P5""]","[""U14"",""U7"",""P9"",""U13"",""P23"",""P24"",""P1"",""P15"",""U21"",""P10"",""U29"",""P16"",""U22"",""P30"",""U6"",""U3"",""P26"",""U4"",""P19"",""U20"",""P28"",""P25"",""P12"",""P27"",""U2"",""P17"",""U8"",""P18"",""U11"",""U5""]","4","4","0","0","1","1","","5438","","{""confidence_rating"":""Moderately confident""}","confidence_question","[0]","","","","","","","","","record","Predictable","","","","P22","22","1","13","","","","","","","","","","","","","Moderately confident"
"","","","","","video-keyboard-response","78","2.0.0","1183606","90","1","2026-06-08 18:52:47","segmentation_norming_randomized_order_maxrun_attention_v4","51.146.137.77","Mozilla/5.0 (Windows NT 10.0; Win64; x64) AppleWebKit/537.36 (KHTML, like Gecko) Chrome/146.0.0.0 Safari/537.36","WebKit","Chrome","146.0.0.0","Windows","10.0","https://uencdihehs.cognition.run/?PROLIFIC_PID=69fbbd287ad72ce563b72cb7&STUDY_ID=6a270c2e609d6ae583c06396&STUDY_ID=6a270c2e609d6ae583c06396&SESSION_ID=6a270f78f401ec8e3fba9662?PROLIFIC_PID=69fbbd287ad72ce563b72cb7&SESSION_ID=6a270f78f401ec8e3fba9662?","en-GB,en;q=0.9","69fbbd287ad72ce563b72cb7","6a270c2e609d6ae583c06396","6a270f78f401ec8e3fba9662?","69fbbd287ad72ce563b72cb7","6a270c2e609d6ae583c06396","6a270f78f401ec8e3fba9662?","30","[14,7,9,13,23,24,1,15,21,10,29,16,22,30,6,3,26,4,19,20,28,25,12,27,2,17,8,18,11,5]","[""P14"",""P7"",""U9"",""P13"",""U23"",""U24"",""U1"",""U15"",""P21"",""U10"",""P29"",""U16"",""P22"",""U30"",""P6"",""P3"",""U26"",""P4"",""U19"",""P20"",""U28"",""U25"",""U12"",""U27"",""P2"",""U17"",""P8"",""U18"",""P11"",""P5""]","[""U14"",""U7"",""P9"",""U13"",""P23"",""P24"",""P1"",""P15"",""U21"",""P10"",""U29"",""P16"",""U22"",""P30"",""U6"",""U3"",""P26"",""U4"",""P19"",""U20"",""P28"",""P25"",""P12"",""P27"",""U2"",""P17"",""U8"",""P18"",""U11"",""U5""]","4","4","0","0","1","1","","null","[""whiteboard_v2.mp4""]","null","segmentation_video","","","","","","","","","whiteboard_v2.mp4","whiteboard","Unpredictable","[11.34824,17.131524,24.255732]","3","","U30","30","1","14","5.783283999999998","false","false","false","","false","0","0","false","false","false","false",""
"","","","","","survey-multi-choice","81","2.0.0","1187777","90","1","2026-06-08 18:52:47","segmentation_norming_randomized_order_maxrun_attention_v4","51.146.137.77","Mozilla/5.0 (Windows NT 10.0; Win64; x64) AppleWebKit/537.36 (KHTML, like Gecko) Chrome/146.0.0.0 Safari/537.36","WebKit","Chrome","146.0.0.0","Windows","10.0","https://uencdihehs.cognition.run/?PROLIFIC_PID=69fbbd287ad72ce563b72cb7&STUDY_ID=6a270c2e609d6ae583c06396&STUDY_ID=6a270c2e609d6ae583c06396&SESSION_ID=6a270f78f401ec8e3fba9662?PROLIFIC_PID=69fbbd287ad72ce563b72cb7&SESSION_ID=6a270f78f401ec8e3fba9662?","en-GB,en;q=0.9","69fbbd287ad72ce563b72cb7","6a270c2e609d6ae583c06396","6a270f78f401ec8e3fba9662?","69fbbd287ad72ce563b72cb7","6a270c2e609d6ae583c06396","6a270f78f401ec8e3fba9662?","30","[14,7,9,13,23,24,1,15,21,10,29,16,22,30,6,3,26,4,19,20,28,25,12,27,2,17,8,18,11,5]","[""P14"",""P7"",""U9"",""P13"",""U23"",""U24"",""U1"",""U15"",""P21"",""U10"",""P29"",""U16"",""P22"",""U30"",""P6"",""P3"",""U26"",""P4"",""U19"",""P20"",""U28"",""U25"",""U12"",""U27"",""P2"",""U17"",""P8"",""U18"",""P11"",""P5""]","[""U14"",""U7"",""P9"",""U13"",""P23"",""P24"",""P1"",""P15"",""U21"",""P10"",""U29"",""P16"",""U22"",""P30"",""U6"",""U3"",""P26"",""U4"",""P19"",""U20"",""P28"",""P25"",""P12"",""P27"",""U2"",""P17"",""U8"",""P18"",""U11"",""U5""]","4","4","0","0","1","1","","4169","","{""confidence_rating"":""Moderately confident""}","confidence_question","[0]","","","","","","","","","whiteboard","Unpredictable","","","","U30","30","1","14","","","","","","","","","","","","","Moderately confident"
"","","","","","video-keyboard-response","82","2.0.0","1222626","90","1","2026-06-08 18:52:47","segmentation_norming_randomized_order_maxrun_attention_v4","51.146.137.77","Mozilla/5.0 (Windows NT 10.0; Win64; x64) AppleWebKit/537.36 (KHTML, like Gecko) Chrome/146.0.0.0 Safari/537.36","WebKit","Chrome","146.0.0.0","Windows","10.0","https://uencdihehs.cognition.run/?PROLIFIC_PID=69fbbd287ad72ce563b72cb7&STUDY_ID=6a270c2e609d6ae583c06396&STUDY_ID=6a270c2e609d6ae583c06396&SESSION_ID=6a270f78f401ec8e3fba9662?PROLIFIC_PID=69fbbd287ad72ce563b72cb7&SESSION_ID=6a270f78f401ec8e3fba9662?","en-GB,en;q=0.9","69fbbd287ad72ce563b72cb7","6a270c2e609d6ae583c06396","6a270f78f401ec8e3fba9662?","69fbbd287ad72ce563b72cb7","6a270c2e609d6ae583c06396","6a270f78f401ec8e3fba9662?","30","[14,7,9,13,23,24,1,15,21,10,29,16,22,30,6,3,26,4,19,20,28,25,12,27,2,17,8,18,11,5]","[""P14"",""P7"",""U9"",""P13"",""U23"",""U24"",""U1"",""U15"",""P21"",""U10"",""P29"",""U16"",""P22"",""U30"",""P6"",""P3"",""U26"",""P4"",""U19"",""P20"",""U28"",""U25"",""U12"",""U27"",""P2"",""U17"",""P8"",""U18"",""P11"",""P5""]","[""U14"",""U7"",""P9"",""U13"",""P23"",""P24"",""P1"",""P15"",""U21"",""P10"",""U29"",""P16"",""U22"",""P30"",""U6"",""U3"",""P26"",""U4"",""P19"",""U20"",""P28"",""P25"",""P12"",""P27"",""U2"",""P17"",""U8"",""P18"",""U11"",""U5""]","4","4","0","0","1","1","","null","[""bedding_v1.mp4""]","null","segmentation_video","","","","","","","","","bedding_v1.mp4","bedding","Predictable","[6.29912,20.276645,28.469662]","3","","P6","6","1","15","8.193017000000001","false","false","false","","false","0","0","false","false","false","false",""
"","","","","","survey-multi-choice","85","2.0.0","1228515","90","1","2026-06-08 18:52:47","segmentation_norming_randomized_order_maxrun_attention_v4","51.146.137.77","Mozilla/5.0 (Windows NT 10.0; Win64; x64) AppleWebKit/537.36 (KHTML, like Gecko) Chrome/146.0.0.0 Safari/537.36","WebKit","Chrome","146.0.0.0","Windows","10.0","https://uencdihehs.cognition.run/?PROLIFIC_PID=69fbbd287ad72ce563b72cb7&STUDY_ID=6a270c2e609d6ae583c06396&STUDY_ID=6a270c2e609d6ae583c06396&SESSION_ID=6a270f78f401ec8e3fba9662?PROLIFIC_PID=69fbbd287ad72ce563b72cb7&SESSION_ID=6a270f78f401ec8e3fba9662?","en-GB,en;q=0.9","69fbbd287ad72ce563b72cb7","6a270c2e609d6ae583c06396","6a270f78f401ec8e3fba9662?","69fbbd287ad72ce563b72cb7","6a270c2e609d6ae583c06396","6a270f78f401ec8e3fba9662?","30","[14,7,9,13,23,24,1,15,21,10,29,16,22,30,6,3,26,4,19,20,28,25,12,27,2,17,8,18,11,5]","[""P14"",""P7"",""U9"",""P13"",""U23"",""U24"",""U1"",""U15"",""P21"",""U10"",""P29"",""U16"",""P22"",""U30"",""P6"",""P3"",""U26"",""P4"",""U19"",""P20"",""U28"",""U25"",""U12"",""U27"",""P2"",""U17"",""P8"",""U18"",""P11"",""P5""]","[""U14"",""U7"",""P9"",""U13"",""P23"",""P24"",""P1"",""P15"",""U21"",""P10"",""U29"",""P16"",""U22"",""P30"",""U6"",""U3"",""P26"",""U4"",""P19"",""U20"",""P28"",""P25"",""P12"",""P27"",""U2"",""P17"",""U8"",""P18"",""U11"",""U5""]","4","4","0","0","1","1","","5888","","{""confidence_rating"":""Very confident""}","confidence_question","[0]","","","","","","","","","bedding","Predictable","","","","P6","6","1","15","","","","","","","","","","","","","Very confident"
"","","","","","video-keyboard-response","86","2.0.0","1247747","90","1","2026-06-08 18:52:47","segmentation_norming_randomized_order_maxrun_attention_v4","51.146.137.77","Mozilla/5.0 (Windows NT 10.0; Win64; x64) AppleWebKit/537.36 (KHTML, like Gecko) Chrome/146.0.0.0 Safari/537.36","WebKit","Chrome","146.0.0.0","Windows","10.0","https://uencdihehs.cognition.run/?PROLIFIC_PID=69fbbd287ad72ce563b72cb7&STUDY_ID=6a270c2e609d6ae583c06396&STUDY_ID=6a270c2e609d6ae583c06396&SESSION_ID=6a270f78f401ec8e3fba9662?PROLIFIC_PID=69fbbd287ad72ce563b72cb7&SESSION_ID=6a270f78f401ec8e3fba9662?","en-GB,en;q=0.9","69fbbd287ad72ce563b72cb7","6a270c2e609d6ae583c06396","6a270f78f401ec8e3fba9662?","69fbbd287ad72ce563b72cb7","6a270c2e609d6ae583c06396","6a270f78f401ec8e3fba9662?","30","[14,7,9,13,23,24,1,15,21,10,29,16,22,30,6,3,26,4,19,20,28,25,12,27,2,17,8,18,11,5]","[""P14"",""P7"",""U9"",""P13"",""U23"",""U24"",""U1"",""U15"",""P21"",""U10"",""P29"",""U16"",""P22"",""U30"",""P6"",""P3"",""U26"",""P4"",""U19"",""P20"",""U28"",""U25"",""U12"",""U27"",""P2"",""U17"",""P8"",""U18"",""P11"",""P5""]","[""U14"",""U7"",""P9"",""U13"",""P23"",""P24"",""P1"",""P15"",""U21"",""P10"",""U29"",""P16"",""U22"",""P30"",""U6"",""U3"",""P26"",""U4"",""P19"",""U20"",""P28"",""P25"",""P12"",""P27"",""U2"",""P17"",""U8"",""P18"",""U11"",""U5""]","4","4","0","0","1","1","","null","[""bank_v1.mp4""]","null","segmentation_video","","","","","","","","","bank_v1.mp4","bank","Predictable","[7.357106,11.392993,15.289527,18.4916]","4","","P3","3","1","16","3.2020729999999986","false","false","false","","false","0","0","false","false","false","false",""
"","","","","","survey-multi-choice","89","2.0.0","1253017","90","1","2026-06-08 18:52:47","segmentation_norming_randomized_order_maxrun_attention_v4","51.146.137.77","Mozilla/5.0 (Windows NT 10.0; Win64; x64) AppleWebKit/537.36 (KHTML, like Gecko) Chrome/146.0.0.0 Safari/537.36","WebKit","Chrome","146.0.0.0","Windows","10.0","https://uencdihehs.cognition.run/?PROLIFIC_PID=69fbbd287ad72ce563b72cb7&STUDY_ID=6a270c2e609d6ae583c06396&STUDY_ID=6a270c2e609d6ae583c06396&SESSION_ID=6a270f78f401ec8e3fba9662?PROLIFIC_PID=69fbbd287ad72ce563b72cb7&SESSION_ID=6a270f78f401ec8e3fba9662?","en-GB,en;q=0.9","69fbbd287ad72ce563b72cb7","6a270c2e609d6ae583c06396","6a270f78f401ec8e3fba9662?","69fbbd287ad72ce563b72cb7","6a270c2e609d6ae583c06396","6a270f78f401ec8e3fba9662?","30","[14,7,9,13,23,24,1,15,21,10,29,16,22,30,6,3,26,4,19,20,28,25,12,27,2,17,8,18,11,5]","[""P14"",""P7"",""U9"",""P13"",""U23"",""U24"",""U1"",""U15"",""P21"",""U10"",""P29"",""U16"",""P22"",""U30"",""P6"",""P3"",""U26"",""P4"",""U19"",""P20"",""U28"",""U25"",""U12"",""U27"",""P2"",""U17"",""P8"",""U18"",""P11"",""P5""]","[""U14"",""U7"",""P9"",""U13"",""P23"",""P24"",""P1"",""P15"",""U21"",""P10"",""U29"",""P16"",""U22"",""P30"",""U6"",""U3"",""P26"",""U4"",""P19"",""U20"",""P28"",""P25"",""P12"",""P27"",""U2"",""P17"",""U8"",""P18"",""U11"",""U5""]","4","4","0","0","1","1","","5269","","{""confidence_rating"":""Very confident""}","confidence_question","[0]","","","","","","","","","bank","Predictable","","","","P3","3","1","16","","","","","","","","","","","","","Very confident"
"","","","","","video-keyboard-response","90","2.0.0","1293247","90","1","2026-06-08 18:52:47","segmentation_norming_randomized_order_maxrun_attention_v4","51.146.137.77","Mozilla/5.0 (Windows NT 10.0; Win64; x64) AppleWebKit/537.36 (KHTML, like Gecko) Chrome/146.0.0.0 Safari/537.36","WebKit","Chrome","146.0.0.0","Windows","10.0","https://uencdihehs.cognition.run/?PROLIFIC_PID=69fbbd287ad72ce563b72cb7&STUDY_ID=6a270c2e609d6ae583c06396&STUDY_ID=6a270c2e609d6ae583c06396&SESSION_ID=6a270f78f401ec8e3fba9662?PROLIFIC_PID=69fbbd287ad72ce563b72cb7&SESSION_ID=6a270f78f401ec8e3fba9662?","en-GB,en;q=0.9","69fbbd287ad72ce563b72cb7","6a270c2e609d6ae583c06396","6a270f78f401ec8e3fba9662?","69fbbd287ad72ce563b72cb7","6a270c2e609d6ae583c06396","6a270f78f401ec8e3fba9662?","30","[14,7,9,13,23,24,1,15,21,10,29,16,22,30,6,3,26,4,19,20,28,25,12,27,2,17,8,18,11,5]","[""P14"",""P7"",""U9"",""P13"",""U23"",""U24"",""U1"",""U15"",""P21"",""U10"",""P29"",""U16"",""P22"",""U30"",""P6"",""P3"",""U26"",""P4"",""U19"",""P20"",""U28"",""U25"",""U12"",""U27"",""P2"",""U17"",""P8"",""U18"",""P11"",""P5""]","[""U14"",""U7"",""P9"",""U13"",""P23"",""P24"",""P1"",""P15"",""U21"",""P10"",""U29"",""P16"",""U22"",""P30"",""U6"",""U3"",""P26"",""U4"",""P19"",""U20"",""P28"",""P25"",""P12"",""P27"",""U2"",""P17"",""U8"",""P18"",""U11"",""U5""]","4","4","0","0","1","1","","null","[""sunbathing_v2.mp4""]","null","segmentation_video","","","","","","","","","sunbathing_v2.mp4","sunbathing","Unpredictable","[10.681238,22.830803,31.092971,32.561401,35.92396]","5","","U26","26","1","17","1.468429999999998","false","false","false","","false","0","0","false","false","false","false",""
"","","","","","survey-multi-choice","93","2.0.0","1315130","90","1","2026-06-08 18:52:47","segmentation_norming_randomized_order_maxrun_attention_v4","51.146.137.77","Mozilla/5.0 (Windows NT 10.0; Win64; x64) AppleWebKit/537.36 (KHTML, like Gecko) Chrome/146.0.0.0 Safari/537.36","WebKit","Chrome","146.0.0.0","Windows","10.0","https://uencdihehs.cognition.run/?PROLIFIC_PID=69fbbd287ad72ce563b72cb7&STUDY_ID=6a270c2e609d6ae583c06396&STUDY_ID=6a270c2e609d6ae583c06396&SESSION_ID=6a270f78f401ec8e3fba9662?PROLIFIC_PID=69fbbd287ad72ce563b72cb7&SESSION_ID=6a270f78f401ec8e3fba9662?","en-GB,en;q=0.9","69fbbd287ad72ce563b72cb7","6a270c2e609d6ae583c06396","6a270f78f401ec8e3fba9662?","69fbbd287ad72ce563b72cb7","6a270c2e609d6ae583c06396","6a270f78f401ec8e3fba9662?","30","[14,7,9,13,23,24,1,15,21,10,29,16,22,30,6,3,26,4,19,20,28,25,12,27,2,17,8,18,11,5]","[""P14"",""P7"",""U9"",""P13"",""U23"",""U24"",""U1"",""U15"",""P21"",""U10"",""P29"",""U16"",""P22"",""U30"",""P6"",""P3"",""U26"",""P4"",""U19"",""P20"",""U28"",""U25"",""U12"",""U27"",""P2"",""U17"",""P8"",""U18"",""P11"",""P5""]","[""U14"",""U7"",""P9"",""U13"",""P23"",""P24"",""P1"",""P15"",""U21"",""P10"",""U29"",""P16"",""U22"",""P30"",""U6"",""U3"",""P26"",""U4"",""P19"",""U20"",""P28"",""P25"",""P12"",""P27"",""U2"",""P17"",""U8"",""P18"",""U11"",""U5""]","4","4","0","0","1","1","","21881","","{""confidence_rating"":""Very confident""}","confidence_question","[0]","","","","","","","","","sunbathing","Unpredictable","","","","U26","26","1","17","","","","","","","","","","","","","Very confident"
"","","","","","video-keyboard-response","94","2.0.0","1350677","90","1","2026-06-08 18:52:47","segmentation_norming_randomized_order_maxrun_attention_v4","51.146.137.77","Mozilla/5.0 (Windows NT 10.0; Win64; x64) AppleWebKit/537.36 (KHTML, like Gecko) Chrome/146.0.0.0 Safari/537.36","WebKit","Chrome","146.0.0.0","Windows","10.0","https://uencdihehs.cognition.run/?PROLIFIC_PID=69fbbd287ad72ce563b72cb7&STUDY_ID=6a270c2e609d6ae583c06396&STUDY_ID=6a270c2e609d6ae583c06396&SESSION_ID=6a270f78f401ec8e3fba9662?PROLIFIC_PID=69fbbd287ad72ce563b72cb7&SESSION_ID=6a270f78f401ec8e3fba9662?","en-GB,en;q=0.9","69fbbd287ad72ce563b72cb7","6a270c2e609d6ae583c06396","6a270f78f401ec8e3fba9662?","69fbbd287ad72ce563b72cb7","6a270c2e609d6ae583c06396","6a270f78f401ec8e3fba9662?","30","[14,7,9,13,23,24,1,15,21,10,29,16,22,30,6,3,26,4,19,20,28,25,12,27,2,17,8,18,11,5]","[""P14"",""P7"",""U9"",""P13"",""U23"",""U24"",""U1"",""U15"",""P21"",""U10"",""P29"",""U16"",""P22"",""U30"",""P6"",""P3"",""U26"",""P4"",""U19"",""P20"",""U28"",""U25"",""U12"",""U27"",""P2"",""U17"",""P8"",""U18"",""P11"",""P5""]","[""U14"",""U7"",""P9"",""U13"",""P23"",""P24"",""P1"",""P15"",""U21"",""P10"",""U29"",""P16"",""U22"",""P30"",""U6"",""U3"",""P26"",""U4"",""P19"",""U20"",""P28"",""P25"",""P12"",""P27"",""U2"",""P17"",""U8"",""P18"",""U11"",""U5""]","4","4","0","0","1","1","","null","[""bathroom_v1.mp4""]","null","segmentation_video","","","","","","","","","bathroom_v1.mp4","bathroom","Predictable","[3.898432,7.486925,15.758767,23.861779,33.104139]","5","","P4","4","1","18","3.588493","false","false","false","","false","0","0","false","false","false","false",""
"","","","","","survey-multi-choice","97","2.0.0","1357699","90","1","2026-06-08 18:52:47","segmentation_norming_randomized_order_maxrun_attention_v4","51.146.137.77","Mozilla/5.0 (Windows NT 10.0; Win64; x64) AppleWebKit/537.36 (KHTML, like Gecko) Chrome/146.0.0.0 Safari/537.36","WebKit","Chrome","146.0.0.0","Windows","10.0","https://uencdihehs.cognition.run/?PROLIFIC_PID=69fbbd287ad72ce563b72cb7&STUDY_ID=6a270c2e609d6ae583c06396&STUDY_ID=6a270c2e609d6ae583c06396&SESSION_ID=6a270f78f401ec8e3fba9662?PROLIFIC_PID=69fbbd287ad72ce563b72cb7&SESSION_ID=6a270f78f401ec8e3fba9662?","en-GB,en;q=0.9","69fbbd287ad72ce563b72cb7","6a270c2e609d6ae583c06396","6a270f78f401ec8e3fba9662?","69fbbd287ad72ce563b72cb7","6a270c2e609d6ae583c06396","6a270f78f401ec8e3fba9662?","30","[14,7,9,13,23,24,1,15,21,10,29,16,22,30,6,3,26,4,19,20,28,25,12,27,2,17,8,18,11,5]","[""P14"",""P7"",""U9"",""P13"",""U23"",""U24"",""U1"",""U15"",""P21"",""U10"",""P29"",""U16"",""P22"",""U30"",""P6"",""P3"",""U26"",""P4"",""U19"",""P20"",""U28"",""U25"",""U12"",""U27"",""P2"",""U17"",""P8"",""U18"",""P11"",""P5""]","[""U14"",""U7"",""P9"",""U13"",""P23"",""P24"",""P1"",""P15"",""U21"",""P10"",""U29"",""P16"",""U22"",""P30"",""U6"",""U3"",""P26"",""U4"",""P19"",""U20"",""P28"",""P25"",""P12"",""P27"",""U2"",""P17"",""U8"",""P18"",""U11"",""U5""]","4","4","0","0","1","1","","7021","","{""confidence_rating"":""Very confident""}","confidence_question","[0]","","","","","","","","","bathroom","Predictable","","","","P4","4","1","18","","","","","","","","","","","","","Very confident"
