"success","timeout","failed_images","failed_audio","failed_video","trial_type","trial_index","plugin_version","time_elapsed","run_id","condition","recorded_at","source_code_version","ip","user_agent","device","browser","browser_version","platform","platform_version","referer","accept_language","pair_count","block1_codes","block2_codes","counterbalance_sets","participant_id","rt","response","view_history","stimulus","trial_kind","demo_index","demo_code","stimulus_file","boundary_times_sec","boundary_count","value","video_code","pair_number","block","global_position_in_block","skipped_video_debug","question_order","confidence_rating"
"true","false","[]","[]","[]","preload","0","2.0.0","2880","50","1","2026-04-04 22:20:46","5f3b61326083f69a8b1f8be321b6ee1c","75.132.83.35","Mozilla/5.0 (Macintosh; Intel Mac OS X 10_15_7) AppleWebKit/537.36 (KHTML, like Gecko) Chrome/146.0.0.0 Safari/537.36","Macintosh","Chrome","146.0.0.0","OS X","10_15_7","https://uencdihehs.cognition.run/","en,zh-CN;q=0.9,zh;q=0.8","32","[""P1"",""U2"",""U3"",""P4"",""U6"",""P7"",""U5"",""U8"",""P9"",""P10"",""P11"",""U12"",""P13"",""U14"",""U15"",""P16"",""P17"",""U18"",""U19"",""P20"",""U21"",""P22"",""P23"",""P24"",""U25"",""U26"",""P27"",""P28"",""P31"",""U32"",""P29"",""P30""]","[""U1"",""P2"",""P3"",""U4"",""P6"",""U7"",""P5"",""P8"",""U9"",""U10"",""U11"",""P12"",""U13"",""P14"",""P15"",""U16"",""U17"",""P18"",""P19"",""U20"",""P21"",""U22"",""U23"",""U24"",""P25"",""P26"",""U27"",""U28"",""U31"",""P32"",""U29"",""U30""]","[{""set_index"":1,""original_numbers"":[1,2,3,4],""ordered_numbers"":[1,2,3,4],""order_type"":""canonical"",""block1_codes"":[""P1"",""U2"",""U3"",""P4""],""block2_codes"":[""U1"",""P2"",""P3"",""U4""]},{""set_index"":2,""original_numbers"":[5,6,7,8],""ordered_numbers"":[6,7,5,8],""order_type"":""shuffled"",""block1_codes"":[""U6"",""P7"",""U5"",""U8""],""block2_codes"":[""P6"",""U7"",""P5"",""P8""]},{""set_index"":3,""original_numbers"":[9,10,11,12],""ordered_numbers"":[9,10,11,12],""order_type"":""canonical"",""block1_codes"":[""P9"",""P10"",""P11"",""U12""],""block2_codes"":[""U9"",""U10"",""U11"",""P12""]},{""set_index"":4,""original_numbers"":[13,14,15,16],""ordered_numbers"":[13,14,15,16],""order_type"":""canonical"",""block1_codes"":[""P13"",""U14"",""U15"",""P16""],""block2_codes"":[""U13"",""P14"",""P15"",""U16""]},{""set_index"":5,""original_numbers"":[17,18,19,20],""ordered_numbers"":[17,18,19,20],""order_type"":""canonical"",""block1_codes"":[""P17"",""U18"",""U19"",""P20""],""block2_codes"":[""U17"",""P18"",""P19"",""U20""]},{""set_index"":6,""original_numbers"":[21,22,23,24],""ordered_numbers"":[21,22,23,24],""order_type"":""canonical"",""block1_codes"":[""U21"",""P22"",""P23"",""P24""],""block2_codes"":[""P21"",""U22"",""U23"",""U24""]},{""set_index"":7,""original_numbers"":[25,26,27,28],""ordered_numbers"":[25,26,27,28],""order_type"":""canonical"",""block1_codes"":[""U25"",""U26"",""P27"",""P28""],""block2_codes"":[""P25"",""P26"",""U27"",""U28""]},{""set_index"":8,""original_numbers"":[29,30,31,32],""ordered_numbers"":[31,32,29,30],""order_type"":""shuffled"",""block1_codes"":[""P31"",""U32"",""P29"",""P30""],""block2_codes"":[""U31"",""P32"",""U29"",""U30""]}]","101","","","","","","","","","","","","","","","","","",""
"","","","","","survey-text","1","2.0.0","38206","50","1","2026-04-04 22:20:46","5f3b61326083f69a8b1f8be321b6ee1c","75.132.83.35","Mozilla/5.0 (Macintosh; Intel Mac OS X 10_15_7) AppleWebKit/537.36 (KHTML, like Gecko) Chrome/146.0.0.0 Safari/537.36","Macintosh","Chrome","146.0.0.0","OS X","10_15_7","https://uencdihehs.cognition.run/","en,zh-CN;q=0.9,zh;q=0.8","32","[""P1"",""U2"",""U3"",""P4"",""U6"",""P7"",""U5"",""U8"",""P9"",""P10"",""P11"",""U12"",""P13"",""U14"",""U15"",""P16"",""P17"",""U18"",""U19"",""P20"",""U21"",""P22"",""P23"",""P24"",""U25"",""U26"",""P27"",""P28"",""P31"",""U32"",""P29"",""P30""]","[""U1"",""P2"",""P3"",""U4"",""P6"",""U7"",""P5"",""P8"",""U9"",""U10"",""U11"",""P12"",""U13"",""P14"",""P15"",""U16"",""U17"",""P18"",""P19"",""U20"",""P21"",""U22"",""U23"",""U24"",""P25"",""P26"",""U27"",""U28"",""U31"",""P32"",""U29"",""U30""]","[{""set_index"":1,""original_numbers"":[1,2,3,4],""ordered_numbers"":[1,2,3,4],""order_type"":""canonical"",""block1_codes"":[""P1"",""U2"",""U3"",""P4""],""block2_codes"":[""U1"",""P2"",""P3"",""U4""]},{""set_index"":2,""original_numbers"":[5,6,7,8],""ordered_numbers"":[6,7,5,8],""order_type"":""shuffled"",""block1_codes"":[""U6"",""P7"",""U5"",""U8""],""block2_codes"":[""P6"",""U7"",""P5"",""P8""]},{""set_index"":3,""original_numbers"":[9,10,11,12],""ordered_numbers"":[9,10,11,12],""order_type"":""canonical"",""block1_codes"":[""P9"",""P10"",""P11"",""U12""],""block2_codes"":[""U9"",""U10"",""U11"",""P12""]},{""set_index"":4,""original_numbers"":[13,14,15,16],""ordered_numbers"":[13,14,15,16],""order_type"":""canonical"",""block1_codes"":[""P13"",""U14"",""U15"",""P16""],""block2_codes"":[""U13"",""P14"",""P15"",""U16""]},{""set_index"":5,""original_numbers"":[17,18,19,20],""ordered_numbers"":[17,18,19,20],""order_type"":""canonical"",""block1_codes"":[""P17"",""U18"",""U19"",""P20""],""block2_codes"":[""U17"",""P18"",""P19"",""U20""]},{""set_index"":6,""original_numbers"":[21,22,23,24],""ordered_numbers"":[21,22,23,24],""order_type"":""canonical"",""block1_codes"":[""U21"",""P22"",""P23"",""P24""],""block2_codes"":[""P21"",""U22"",""U23"",""U24""]},{""set_index"":7,""original_numbers"":[25,26,27,28],""ordered_numbers"":[25,26,27,28],""order_type"":""canonical"",""block1_codes"":[""U25"",""U26"",""P27"",""P28""],""block2_codes"":[""P25"",""P26"",""U27"",""U28""]},{""set_index"":8,""original_numbers"":[29,30,31,32],""ordered_numbers"":[31,32,29,30],""order_type"":""shuffled"",""block1_codes"":[""P31"",""U32"",""P29"",""P30""],""block2_codes"":[""U31"",""P32"",""U29"",""U30""]}]","101","35316","{""Q0"":""101""}","","","","","","","","","","","","","","","",""
"true","","","","","fullscreen","2","2.0.0","42204","50","1","2026-04-04 22:20:46","5f3b61326083f69a8b1f8be321b6ee1c","75.132.83.35","Mozilla/5.0 (Macintosh; Intel Mac OS X 10_15_7) AppleWebKit/537.36 (KHTML, like Gecko) Chrome/146.0.0.0 Safari/537.36","Macintosh","Chrome","146.0.0.0","OS X","10_15_7","https://uencdihehs.cognition.run/","en,zh-CN;q=0.9,zh;q=0.8","32","[""P1"",""U2"",""U3"",""P4"",""U6"",""P7"",""U5"",""U8"",""P9"",""P10"",""P11"",""U12"",""P13"",""U14"",""U15"",""P16"",""P17"",""U18"",""U19"",""P20"",""U21"",""P22"",""P23"",""P24"",""U25"",""U26"",""P27"",""P28"",""P31"",""U32"",""P29"",""P30""]","[""U1"",""P2"",""P3"",""U4"",""P6"",""U7"",""P5"",""P8"",""U9"",""U10"",""U11"",""P12"",""U13"",""P14"",""P15"",""U16"",""U17"",""P18"",""P19"",""U20"",""P21"",""U22"",""U23"",""U24"",""P25"",""P26"",""U27"",""U28"",""U31"",""P32"",""U29"",""U30""]","[{""set_index"":1,""original_numbers"":[1,2,3,4],""ordered_numbers"":[1,2,3,4],""order_type"":""canonical"",""block1_codes"":[""P1"",""U2"",""U3"",""P4""],""block2_codes"":[""U1"",""P2"",""P3"",""U4""]},{""set_index"":2,""original_numbers"":[5,6,7,8],""ordered_numbers"":[6,7,5,8],""order_type"":""shuffled"",""block1_codes"":[""U6"",""P7"",""U5"",""U8""],""block2_codes"":[""P6"",""U7"",""P5"",""P8""]},{""set_index"":3,""original_numbers"":[9,10,11,12],""ordered_numbers"":[9,10,11,12],""order_type"":""canonical"",""block1_codes"":[""P9"",""P10"",""P11"",""U12""],""block2_codes"":[""U9"",""U10"",""U11"",""P12""]},{""set_index"":4,""original_numbers"":[13,14,15,16],""ordered_numbers"":[13,14,15,16],""order_type"":""canonical"",""block1_codes"":[""P13"",""U14"",""U15"",""P16""],""block2_codes"":[""U13"",""P14"",""P15"",""U16""]},{""set_index"":5,""original_numbers"":[17,18,19,20],""ordered_numbers"":[17,18,19,20],""order_type"":""canonical"",""block1_codes"":[""P17"",""U18"",""U19"",""P20""],""block2_codes"":[""U17"",""P18"",""P19"",""U20""]},{""set_index"":6,""original_numbers"":[21,22,23,24],""ordered_numbers"":[21,22,23,24],""order_type"":""canonical"",""block1_codes"":[""U21"",""P22"",""P23"",""P24""],""block2_codes"":[""P21"",""U22"",""U23"",""U24""]},{""set_index"":7,""original_numbers"":[25,26,27,28],""ordered_numbers"":[25,26,27,28],""order_type"":""canonical"",""block1_codes"":[""U25"",""U26"",""P27"",""P28""],""block2_codes"":[""P25"",""P26"",""U27"",""U28""]},{""set_index"":8,""original_numbers"":[29,30,31,32],""ordered_numbers"":[31,32,29,30],""order_type"":""shuffled"",""block1_codes"":[""P31"",""U32"",""P29"",""P30""],""block2_codes"":[""U31"",""P32"",""U29"",""U30""]}]","101","2988","","","","","","","","","","","","","","","","",""
"","","","","","instructions","3","2.0.0","90549","50","1","2026-04-04 22:20:46","5f3b61326083f69a8b1f8be321b6ee1c","75.132.83.35","Mozilla/5.0 (Macintosh; Intel Mac OS X 10_15_7) AppleWebKit/537.36 (KHTML, like Gecko) Chrome/146.0.0.0 Safari/537.36","Macintosh","Chrome","146.0.0.0","OS X","10_15_7","https://uencdihehs.cognition.run/","en,zh-CN;q=0.9,zh;q=0.8","32","[""P1"",""U2"",""U3"",""P4"",""U6"",""P7"",""U5"",""U8"",""P9"",""P10"",""P11"",""U12"",""P13"",""U14"",""U15"",""P16"",""P17"",""U18"",""U19"",""P20"",""U21"",""P22"",""P23"",""P24"",""U25"",""U26"",""P27"",""P28"",""P31"",""U32"",""P29"",""P30""]","[""U1"",""P2"",""P3"",""U4"",""P6"",""U7"",""P5"",""P8"",""U9"",""U10"",""U11"",""P12"",""U13"",""P14"",""P15"",""U16"",""U17"",""P18"",""P19"",""U20"",""P21"",""U22"",""U23"",""U24"",""P25"",""P26"",""U27"",""U28"",""U31"",""P32"",""U29"",""U30""]","[{""set_index"":1,""original_numbers"":[1,2,3,4],""ordered_numbers"":[1,2,3,4],""order_type"":""canonical"",""block1_codes"":[""P1"",""U2"",""U3"",""P4""],""block2_codes"":[""U1"",""P2"",""P3"",""U4""]},{""set_index"":2,""original_numbers"":[5,6,7,8],""ordered_numbers"":[6,7,5,8],""order_type"":""shuffled"",""block1_codes"":[""U6"",""P7"",""U5"",""U8""],""block2_codes"":[""P6"",""U7"",""P5"",""P8""]},{""set_index"":3,""original_numbers"":[9,10,11,12],""ordered_numbers"":[9,10,11,12],""order_type"":""canonical"",""block1_codes"":[""P9"",""P10"",""P11"",""U12""],""block2_codes"":[""U9"",""U10"",""U11"",""P12""]},{""set_index"":4,""original_numbers"":[13,14,15,16],""ordered_numbers"":[13,14,15,16],""order_type"":""canonical"",""block1_codes"":[""P13"",""U14"",""U15"",""P16""],""block2_codes"":[""U13"",""P14"",""P15"",""U16""]},{""set_index"":5,""original_numbers"":[17,18,19,20],""ordered_numbers"":[17,18,19,20],""order_type"":""canonical"",""block1_codes"":[""P17"",""U18"",""U19"",""P20""],""block2_codes"":[""U17"",""P18"",""P19"",""U20""]},{""set_index"":6,""original_numbers"":[21,22,23,24],""ordered_numbers"":[21,22,23,24],""order_type"":""canonical"",""block1_codes"":[""U21"",""P22"",""P23"",""P24""],""block2_codes"":[""P21"",""U22"",""U23"",""U24""]},{""set_index"":7,""original_numbers"":[25,26,27,28],""ordered_numbers"":[25,26,27,28],""order_type"":""canonical"",""block1_codes"":[""U25"",""U26"",""P27"",""P28""],""block2_codes"":[""P25"",""P26"",""U27"",""U28""]},{""set_index"":8,""original_numbers"":[29,30,31,32],""ordered_numbers"":[31,32,29,30],""order_type"":""shuffled"",""block1_codes"":[""P31"",""U32"",""P29"",""P30""],""block2_codes"":[""U31"",""P32"",""U29"",""U30""]}]","101","48342","","[{""page_index"":0,""viewing_time"":7960},{""page_index"":1,""viewing_time"":9099},{""page_index"":2,""viewing_time"":31282}]","","","","","","","","","","","","","","",""
"","","","","","html-button-response","4","2.0.0","109552","50","1","2026-04-04 22:20:46","5f3b61326083f69a8b1f8be321b6ee1c","75.132.83.35","Mozilla/5.0 (Macintosh; Intel Mac OS X 10_15_7) AppleWebKit/537.36 (KHTML, like Gecko) Chrome/146.0.0.0 Safari/537.36","Macintosh","Chrome","146.0.0.0","OS X","10_15_7","https://uencdihehs.cognition.run/","en,zh-CN;q=0.9,zh;q=0.8","32","[""P1"",""U2"",""U3"",""P4"",""U6"",""P7"",""U5"",""U8"",""P9"",""P10"",""P11"",""U12"",""P13"",""U14"",""U15"",""P16"",""P17"",""U18"",""U19"",""P20"",""U21"",""P22"",""P23"",""P24"",""U25"",""U26"",""P27"",""P28"",""P31"",""U32"",""P29"",""P30""]","[""U1"",""P2"",""P3"",""U4"",""P6"",""U7"",""P5"",""P8"",""U9"",""U10"",""U11"",""P12"",""U13"",""P14"",""P15"",""U16"",""U17"",""P18"",""P19"",""U20"",""P21"",""U22"",""U23"",""U24"",""P25"",""P26"",""U27"",""U28"",""U31"",""P32"",""U29"",""U30""]","[{""set_index"":1,""original_numbers"":[1,2,3,4],""ordered_numbers"":[1,2,3,4],""order_type"":""canonical"",""block1_codes"":[""P1"",""U2"",""U3"",""P4""],""block2_codes"":[""U1"",""P2"",""P3"",""U4""]},{""set_index"":2,""original_numbers"":[5,6,7,8],""ordered_numbers"":[6,7,5,8],""order_type"":""shuffled"",""block1_codes"":[""U6"",""P7"",""U5"",""U8""],""block2_codes"":[""P6"",""U7"",""P5"",""P8""]},{""set_index"":3,""original_numbers"":[9,10,11,12],""ordered_numbers"":[9,10,11,12],""order_type"":""canonical"",""block1_codes"":[""P9"",""P10"",""P11"",""U12""],""block2_codes"":[""U9"",""U10"",""U11"",""P12""]},{""set_index"":4,""original_numbers"":[13,14,15,16],""ordered_numbers"":[13,14,15,16],""order_type"":""canonical"",""block1_codes"":[""P13"",""U14"",""U15"",""P16""],""block2_codes"":[""U13"",""P14"",""P15"",""U16""]},{""set_index"":5,""original_numbers"":[17,18,19,20],""ordered_numbers"":[17,18,19,20],""order_type"":""canonical"",""block1_codes"":[""P17"",""U18"",""U19"",""P20""],""block2_codes"":[""U17"",""P18"",""P19"",""U20""]},{""set_index"":6,""original_numbers"":[21,22,23,24],""ordered_numbers"":[21,22,23,24],""order_type"":""canonical"",""block1_codes"":[""U21"",""P22"",""P23"",""P24""],""block2_codes"":[""P21"",""U22"",""U23"",""U24""]},{""set_index"":7,""original_numbers"":[25,26,27,28],""ordered_numbers"":[25,26,27,28],""order_type"":""canonical"",""block1_codes"":[""U25"",""U26"",""P27"",""P28""],""block2_codes"":[""P25"",""P26"",""U27"",""U28""]},{""set_index"":8,""original_numbers"":[29,30,31,32],""ordered_numbers"":[31,32,29,30],""order_type"":""shuffled"",""block1_codes"":[""P31"",""U32"",""P29"",""P30""],""block2_codes"":[""U31"",""P32"",""U29"",""U30""]}]","101","18994","0","","Here is a demo trial! Like what you will do in the main experiment, <br><br> you will watch a movie clip and at the same time marking off the activity in these movies into the <strong>SMALLEST</strong> units that seem natural and meaningful to you.<br><br>Remember, tap the <strong>SPACE BAR</strong> to mark off a boundary between two <strong>SMALL</strong> units of activity.<br><br>A green bar will appear at the bottom of the screen when you press the button.<br><br>","","","","","","","","","","","","","",""
"","","","","","video-keyboard-response","5","2.0.0","145379","50","1","2026-04-04 22:20:46","5f3b61326083f69a8b1f8be321b6ee1c","75.132.83.35","Mozilla/5.0 (Macintosh; Intel Mac OS X 10_15_7) AppleWebKit/537.36 (KHTML, like Gecko) Chrome/146.0.0.0 Safari/537.36","Macintosh","Chrome","146.0.0.0","OS X","10_15_7","https://uencdihehs.cognition.run/","en,zh-CN;q=0.9,zh;q=0.8","32","[""P1"",""U2"",""U3"",""P4"",""U6"",""P7"",""U5"",""U8"",""P9"",""P10"",""P11"",""U12"",""P13"",""U14"",""U15"",""P16"",""P17"",""U18"",""U19"",""P20"",""U21"",""P22"",""P23"",""P24"",""U25"",""U26"",""P27"",""P28"",""P31"",""U32"",""P29"",""P30""]","[""U1"",""P2"",""P3"",""U4"",""P6"",""U7"",""P5"",""P8"",""U9"",""U10"",""U11"",""P12"",""U13"",""P14"",""P15"",""U16"",""U17"",""P18"",""P19"",""U20"",""P21"",""U22"",""U23"",""U24"",""P25"",""P26"",""U27"",""U28"",""U31"",""P32"",""U29"",""U30""]","[{""set_index"":1,""original_numbers"":[1,2,3,4],""ordered_numbers"":[1,2,3,4],""order_type"":""canonical"",""block1_codes"":[""P1"",""U2"",""U3"",""P4""],""block2_codes"":[""U1"",""P2"",""P3"",""U4""]},{""set_index"":2,""original_numbers"":[5,6,7,8],""ordered_numbers"":[6,7,5,8],""order_type"":""shuffled"",""block1_codes"":[""U6"",""P7"",""U5"",""U8""],""block2_codes"":[""P6"",""U7"",""P5"",""P8""]},{""set_index"":3,""original_numbers"":[9,10,11,12],""ordered_numbers"":[9,10,11,12],""order_type"":""canonical"",""block1_codes"":[""P9"",""P10"",""P11"",""U12""],""block2_codes"":[""U9"",""U10"",""U11"",""P12""]},{""set_index"":4,""original_numbers"":[13,14,15,16],""ordered_numbers"":[13,14,15,16],""order_type"":""canonical"",""block1_codes"":[""P13"",""U14"",""U15"",""P16""],""block2_codes"":[""U13"",""P14"",""P15"",""U16""]},{""set_index"":5,""original_numbers"":[17,18,19,20],""ordered_numbers"":[17,18,19,20],""order_type"":""canonical"",""block1_codes"":[""P17"",""U18"",""U19"",""P20""],""block2_codes"":[""U17"",""P18"",""P19"",""U20""]},{""set_index"":6,""original_numbers"":[21,22,23,24],""ordered_numbers"":[21,22,23,24],""order_type"":""canonical"",""block1_codes"":[""U21"",""P22"",""P23"",""P24""],""block2_codes"":[""P21"",""U22"",""U23"",""U24""]},{""set_index"":7,""original_numbers"":[25,26,27,28],""ordered_numbers"":[25,26,27,28],""order_type"":""canonical"",""block1_codes"":[""U25"",""U26"",""P27"",""P28""],""block2_codes"":[""P25"",""P26"",""U27"",""U28""]},{""set_index"":8,""original_numbers"":[29,30,31,32],""ordered_numbers"":[31,32,29,30],""order_type"":""shuffled"",""block1_codes"":[""P31"",""U32"",""P29"",""P30""],""block2_codes"":[""U31"",""P32"",""U29"",""U30""]}]","101","null","null","","[""garden_v1.mp4""]","demo_video","1","demo1","garden_v1.mp4","[4.112345,9.488474,14.091127,19.0481,22.239306,25.220762,31.245586,35.360001]","8","","","","","","","",""
"","","","","","call-function","6","2.0.0","145381","50","1","2026-04-04 22:20:46","5f3b61326083f69a8b1f8be321b6ee1c","75.132.83.35","Mozilla/5.0 (Macintosh; Intel Mac OS X 10_15_7) AppleWebKit/537.36 (KHTML, like Gecko) Chrome/146.0.0.0 Safari/537.36","Macintosh","Chrome","146.0.0.0","OS X","10_15_7","https://uencdihehs.cognition.run/","en,zh-CN;q=0.9,zh;q=0.8","32","[""P1"",""U2"",""U3"",""P4"",""U6"",""P7"",""U5"",""U8"",""P9"",""P10"",""P11"",""U12"",""P13"",""U14"",""U15"",""P16"",""P17"",""U18"",""U19"",""P20"",""U21"",""P22"",""P23"",""P24"",""U25"",""U26"",""P27"",""P28"",""P31"",""U32"",""P29"",""P30""]","[""U1"",""P2"",""P3"",""U4"",""P6"",""U7"",""P5"",""P8"",""U9"",""U10"",""U11"",""P12"",""U13"",""P14"",""P15"",""U16"",""U17"",""P18"",""P19"",""U20"",""P21"",""U22"",""U23"",""U24"",""P25"",""P26"",""U27"",""U28"",""U31"",""P32"",""U29"",""U30""]","[{""set_index"":1,""original_numbers"":[1,2,3,4],""ordered_numbers"":[1,2,3,4],""order_type"":""canonical"",""block1_codes"":[""P1"",""U2"",""U3"",""P4""],""block2_codes"":[""U1"",""P2"",""P3"",""U4""]},{""set_index"":2,""original_numbers"":[5,6,7,8],""ordered_numbers"":[6,7,5,8],""order_type"":""shuffled"",""block1_codes"":[""U6"",""P7"",""U5"",""U8""],""block2_codes"":[""P6"",""U7"",""P5"",""P8""]},{""set_index"":3,""original_numbers"":[9,10,11,12],""ordered_numbers"":[9,10,11,12],""order_type"":""canonical"",""block1_codes"":[""P9"",""P10"",""P11"",""U12""],""block2_codes"":[""U9"",""U10"",""U11"",""P12""]},{""set_index"":4,""original_numbers"":[13,14,15,16],""ordered_numbers"":[13,14,15,16],""order_type"":""canonical"",""block1_codes"":[""P13"",""U14"",""U15"",""P16""],""block2_codes"":[""U13"",""P14"",""P15"",""U16""]},{""set_index"":5,""original_numbers"":[17,18,19,20],""ordered_numbers"":[17,18,19,20],""order_type"":""canonical"",""block1_codes"":[""P17"",""U18"",""U19"",""P20""],""block2_codes"":[""U17"",""P18"",""P19"",""U20""]},{""set_index"":6,""original_numbers"":[21,22,23,24],""ordered_numbers"":[21,22,23,24],""order_type"":""canonical"",""block1_codes"":[""U21"",""P22"",""P23"",""P24""],""block2_codes"":[""P21"",""U22"",""U23"",""U24""]},{""set_index"":7,""original_numbers"":[25,26,27,28],""ordered_numbers"":[25,26,27,28],""order_type"":""canonical"",""block1_codes"":[""U25"",""U26"",""P27"",""P28""],""block2_codes"":[""P25"",""P26"",""U27"",""U28""]},{""set_index"":8,""original_numbers"":[29,30,31,32],""ordered_numbers"":[31,32,29,30],""order_type"":""shuffled"",""block1_codes"":[""P31"",""U32"",""P29"",""P30""],""block2_codes"":[""U31"",""P32"",""U29"",""U30""]}]","101","","","","","","","","","","","","","","","","","",""
"","","","","","html-button-response","7","2.0.0","152031","50","1","2026-04-04 22:20:46","5f3b61326083f69a8b1f8be321b6ee1c","75.132.83.35","Mozilla/5.0 (Macintosh; Intel Mac OS X 10_15_7) AppleWebKit/537.36 (KHTML, like Gecko) Chrome/146.0.0.0 Safari/537.36","Macintosh","Chrome","146.0.0.0","OS X","10_15_7","https://uencdihehs.cognition.run/","en,zh-CN;q=0.9,zh;q=0.8","32","[""P1"",""U2"",""U3"",""P4"",""U6"",""P7"",""U5"",""U8"",""P9"",""P10"",""P11"",""U12"",""P13"",""U14"",""U15"",""P16"",""P17"",""U18"",""U19"",""P20"",""U21"",""P22"",""P23"",""P24"",""U25"",""U26"",""P27"",""P28"",""P31"",""U32"",""P29"",""P30""]","[""U1"",""P2"",""P3"",""U4"",""P6"",""U7"",""P5"",""P8"",""U9"",""U10"",""U11"",""P12"",""U13"",""P14"",""P15"",""U16"",""U17"",""P18"",""P19"",""U20"",""P21"",""U22"",""U23"",""U24"",""P25"",""P26"",""U27"",""U28"",""U31"",""P32"",""U29"",""U30""]","[{""set_index"":1,""original_numbers"":[1,2,3,4],""ordered_numbers"":[1,2,3,4],""order_type"":""canonical"",""block1_codes"":[""P1"",""U2"",""U3"",""P4""],""block2_codes"":[""U1"",""P2"",""P3"",""U4""]},{""set_index"":2,""original_numbers"":[5,6,7,8],""ordered_numbers"":[6,7,5,8],""order_type"":""shuffled"",""block1_codes"":[""U6"",""P7"",""U5"",""U8""],""block2_codes"":[""P6"",""U7"",""P5"",""P8""]},{""set_index"":3,""original_numbers"":[9,10,11,12],""ordered_numbers"":[9,10,11,12],""order_type"":""canonical"",""block1_codes"":[""P9"",""P10"",""P11"",""U12""],""block2_codes"":[""U9"",""U10"",""U11"",""P12""]},{""set_index"":4,""original_numbers"":[13,14,15,16],""ordered_numbers"":[13,14,15,16],""order_type"":""canonical"",""block1_codes"":[""P13"",""U14"",""U15"",""P16""],""block2_codes"":[""U13"",""P14"",""P15"",""U16""]},{""set_index"":5,""original_numbers"":[17,18,19,20],""ordered_numbers"":[17,18,19,20],""order_type"":""canonical"",""block1_codes"":[""P17"",""U18"",""U19"",""P20""],""block2_codes"":[""U17"",""P18"",""P19"",""U20""]},{""set_index"":6,""original_numbers"":[21,22,23,24],""ordered_numbers"":[21,22,23,24],""order_type"":""canonical"",""block1_codes"":[""U21"",""P22"",""P23"",""P24""],""block2_codes"":[""P21"",""U22"",""U23"",""U24""]},{""set_index"":7,""original_numbers"":[25,26,27,28],""ordered_numbers"":[25,26,27,28],""order_type"":""canonical"",""block1_codes"":[""U25"",""U26"",""P27"",""P28""],""block2_codes"":[""P25"",""P26"",""U27"",""U28""]},{""set_index"":8,""original_numbers"":[29,30,31,32],""ordered_numbers"":[31,32,29,30],""order_type"":""shuffled"",""block1_codes"":[""P31"",""U32"",""P29"",""P30""],""block2_codes"":[""U31"",""P32"",""U29"",""U30""]}]","101","6646","0","","Usually people tend to press the button more numbers of times than you did.<br><br><br>As a reminder, press the <strong>SPACE BAR</strong> to mark off a boundary between two <strong>SMALL</strong> units of activity.<br><br><br>Let's try again!<br><br>","demo_feedback","","","","","","","","","","","","",""
"","","","","","video-keyboard-response","8","2.0.0","195533","50","1","2026-04-04 22:20:46","5f3b61326083f69a8b1f8be321b6ee1c","75.132.83.35","Mozilla/5.0 (Macintosh; Intel Mac OS X 10_15_7) AppleWebKit/537.36 (KHTML, like Gecko) Chrome/146.0.0.0 Safari/537.36","Macintosh","Chrome","146.0.0.0","OS X","10_15_7","https://uencdihehs.cognition.run/","en,zh-CN;q=0.9,zh;q=0.8","32","[""P1"",""U2"",""U3"",""P4"",""U6"",""P7"",""U5"",""U8"",""P9"",""P10"",""P11"",""U12"",""P13"",""U14"",""U15"",""P16"",""P17"",""U18"",""U19"",""P20"",""U21"",""P22"",""P23"",""P24"",""U25"",""U26"",""P27"",""P28"",""P31"",""U32"",""P29"",""P30""]","[""U1"",""P2"",""P3"",""U4"",""P6"",""U7"",""P5"",""P8"",""U9"",""U10"",""U11"",""P12"",""U13"",""P14"",""P15"",""U16"",""U17"",""P18"",""P19"",""U20"",""P21"",""U22"",""U23"",""U24"",""P25"",""P26"",""U27"",""U28"",""U31"",""P32"",""U29"",""U30""]","[{""set_index"":1,""original_numbers"":[1,2,3,4],""ordered_numbers"":[1,2,3,4],""order_type"":""canonical"",""block1_codes"":[""P1"",""U2"",""U3"",""P4""],""block2_codes"":[""U1"",""P2"",""P3"",""U4""]},{""set_index"":2,""original_numbers"":[5,6,7,8],""ordered_numbers"":[6,7,5,8],""order_type"":""shuffled"",""block1_codes"":[""U6"",""P7"",""U5"",""U8""],""block2_codes"":[""P6"",""U7"",""P5"",""P8""]},{""set_index"":3,""original_numbers"":[9,10,11,12],""ordered_numbers"":[9,10,11,12],""order_type"":""canonical"",""block1_codes"":[""P9"",""P10"",""P11"",""U12""],""block2_codes"":[""U9"",""U10"",""U11"",""P12""]},{""set_index"":4,""original_numbers"":[13,14,15,16],""ordered_numbers"":[13,14,15,16],""order_type"":""canonical"",""block1_codes"":[""P13"",""U14"",""U15"",""P16""],""block2_codes"":[""U13"",""P14"",""P15"",""U16""]},{""set_index"":5,""original_numbers"":[17,18,19,20],""ordered_numbers"":[17,18,19,20],""order_type"":""canonical"",""block1_codes"":[""P17"",""U18"",""U19"",""P20""],""block2_codes"":[""U17"",""P18"",""P19"",""U20""]},{""set_index"":6,""original_numbers"":[21,22,23,24],""ordered_numbers"":[21,22,23,24],""order_type"":""canonical"",""block1_codes"":[""U21"",""P22"",""P23"",""P24""],""block2_codes"":[""P21"",""U22"",""U23"",""U24""]},{""set_index"":7,""original_numbers"":[25,26,27,28],""ordered_numbers"":[25,26,27,28],""order_type"":""canonical"",""block1_codes"":[""U25"",""U26"",""P27"",""P28""],""block2_codes"":[""P25"",""P26"",""U27"",""U28""]},{""set_index"":8,""original_numbers"":[29,30,31,32],""ordered_numbers"":[31,32,29,30],""order_type"":""shuffled"",""block1_codes"":[""P31"",""U32"",""P29"",""P30""],""block2_codes"":[""U31"",""P32"",""U29"",""U30""]}]","101","null","null","","[""getting_ready_v1.mp4""]","demo_video","2","demo2","getting_ready_v1.mp4","[11.18641,14.29951,18.786508,31.726124]","4","","","","","","","",""
"","","","","","call-function","9","2.0.0","195534","50","1","2026-04-04 22:20:46","5f3b61326083f69a8b1f8be321b6ee1c","75.132.83.35","Mozilla/5.0 (Macintosh; Intel Mac OS X 10_15_7) AppleWebKit/537.36 (KHTML, like Gecko) Chrome/146.0.0.0 Safari/537.36","Macintosh","Chrome","146.0.0.0","OS X","10_15_7","https://uencdihehs.cognition.run/","en,zh-CN;q=0.9,zh;q=0.8","32","[""P1"",""U2"",""U3"",""P4"",""U6"",""P7"",""U5"",""U8"",""P9"",""P10"",""P11"",""U12"",""P13"",""U14"",""U15"",""P16"",""P17"",""U18"",""U19"",""P20"",""U21"",""P22"",""P23"",""P24"",""U25"",""U26"",""P27"",""P28"",""P31"",""U32"",""P29"",""P30""]","[""U1"",""P2"",""P3"",""U4"",""P6"",""U7"",""P5"",""P8"",""U9"",""U10"",""U11"",""P12"",""U13"",""P14"",""P15"",""U16"",""U17"",""P18"",""P19"",""U20"",""P21"",""U22"",""U23"",""U24"",""P25"",""P26"",""U27"",""U28"",""U31"",""P32"",""U29"",""U30""]","[{""set_index"":1,""original_numbers"":[1,2,3,4],""ordered_numbers"":[1,2,3,4],""order_type"":""canonical"",""block1_codes"":[""P1"",""U2"",""U3"",""P4""],""block2_codes"":[""U1"",""P2"",""P3"",""U4""]},{""set_index"":2,""original_numbers"":[5,6,7,8],""ordered_numbers"":[6,7,5,8],""order_type"":""shuffled"",""block1_codes"":[""U6"",""P7"",""U5"",""U8""],""block2_codes"":[""P6"",""U7"",""P5"",""P8""]},{""set_index"":3,""original_numbers"":[9,10,11,12],""ordered_numbers"":[9,10,11,12],""order_type"":""canonical"",""block1_codes"":[""P9"",""P10"",""P11"",""U12""],""block2_codes"":[""U9"",""U10"",""U11"",""P12""]},{""set_index"":4,""original_numbers"":[13,14,15,16],""ordered_numbers"":[13,14,15,16],""order_type"":""canonical"",""block1_codes"":[""P13"",""U14"",""U15"",""P16""],""block2_codes"":[""U13"",""P14"",""P15"",""U16""]},{""set_index"":5,""original_numbers"":[17,18,19,20],""ordered_numbers"":[17,18,19,20],""order_type"":""canonical"",""block1_codes"":[""P17"",""U18"",""U19"",""P20""],""block2_codes"":[""U17"",""P18"",""P19"",""U20""]},{""set_index"":6,""original_numbers"":[21,22,23,24],""ordered_numbers"":[21,22,23,24],""order_type"":""canonical"",""block1_codes"":[""U21"",""P22"",""P23"",""P24""],""block2_codes"":[""P21"",""U22"",""U23"",""U24""]},{""set_index"":7,""original_numbers"":[25,26,27,28],""ordered_numbers"":[25,26,27,28],""order_type"":""canonical"",""block1_codes"":[""U25"",""U26"",""P27"",""P28""],""block2_codes"":[""P25"",""P26"",""U27"",""U28""]},{""set_index"":8,""original_numbers"":[29,30,31,32],""ordered_numbers"":[31,32,29,30],""order_type"":""shuffled"",""block1_codes"":[""P31"",""U32"",""P29"",""P30""],""block2_codes"":[""U31"",""P32"",""U29"",""U30""]}]","101","","","","","","","","","","","","","","","","","",""
"","","","","","html-button-response","10","2.0.0","201229","50","1","2026-04-04 22:20:46","5f3b61326083f69a8b1f8be321b6ee1c","75.132.83.35","Mozilla/5.0 (Macintosh; Intel Mac OS X 10_15_7) AppleWebKit/537.36 (KHTML, like Gecko) Chrome/146.0.0.0 Safari/537.36","Macintosh","Chrome","146.0.0.0","OS X","10_15_7","https://uencdihehs.cognition.run/","en,zh-CN;q=0.9,zh;q=0.8","32","[""P1"",""U2"",""U3"",""P4"",""U6"",""P7"",""U5"",""U8"",""P9"",""P10"",""P11"",""U12"",""P13"",""U14"",""U15"",""P16"",""P17"",""U18"",""U19"",""P20"",""U21"",""P22"",""P23"",""P24"",""U25"",""U26"",""P27"",""P28"",""P31"",""U32"",""P29"",""P30""]","[""U1"",""P2"",""P3"",""U4"",""P6"",""U7"",""P5"",""P8"",""U9"",""U10"",""U11"",""P12"",""U13"",""P14"",""P15"",""U16"",""U17"",""P18"",""P19"",""U20"",""P21"",""U22"",""U23"",""U24"",""P25"",""P26"",""U27"",""U28"",""U31"",""P32"",""U29"",""U30""]","[{""set_index"":1,""original_numbers"":[1,2,3,4],""ordered_numbers"":[1,2,3,4],""order_type"":""canonical"",""block1_codes"":[""P1"",""U2"",""U3"",""P4""],""block2_codes"":[""U1"",""P2"",""P3"",""U4""]},{""set_index"":2,""original_numbers"":[5,6,7,8],""ordered_numbers"":[6,7,5,8],""order_type"":""shuffled"",""block1_codes"":[""U6"",""P7"",""U5"",""U8""],""block2_codes"":[""P6"",""U7"",""P5"",""P8""]},{""set_index"":3,""original_numbers"":[9,10,11,12],""ordered_numbers"":[9,10,11,12],""order_type"":""canonical"",""block1_codes"":[""P9"",""P10"",""P11"",""U12""],""block2_codes"":[""U9"",""U10"",""U11"",""P12""]},{""set_index"":4,""original_numbers"":[13,14,15,16],""ordered_numbers"":[13,14,15,16],""order_type"":""canonical"",""block1_codes"":[""P13"",""U14"",""U15"",""P16""],""block2_codes"":[""U13"",""P14"",""P15"",""U16""]},{""set_index"":5,""original_numbers"":[17,18,19,20],""ordered_numbers"":[17,18,19,20],""order_type"":""canonical"",""block1_codes"":[""P17"",""U18"",""U19"",""P20""],""block2_codes"":[""U17"",""P18"",""P19"",""U20""]},{""set_index"":6,""original_numbers"":[21,22,23,24],""ordered_numbers"":[21,22,23,24],""order_type"":""canonical"",""block1_codes"":[""U21"",""P22"",""P23"",""P24""],""block2_codes"":[""P21"",""U22"",""U23"",""U24""]},{""set_index"":7,""original_numbers"":[25,26,27,28],""ordered_numbers"":[25,26,27,28],""order_type"":""canonical"",""block1_codes"":[""U25"",""U26"",""P27"",""P28""],""block2_codes"":[""P25"",""P26"",""U27"",""U28""]},{""set_index"":8,""original_numbers"":[29,30,31,32],""ordered_numbers"":[31,32,29,30],""order_type"":""shuffled"",""block1_codes"":[""P31"",""U32"",""P29"",""P30""],""block2_codes"":[""U31"",""P32"",""U29"",""U30""]}]","101","5693","0","","Usually people tend to press the button more numbers of times than you did.<br><br><br>As a reminder, press the <strong>SPACE BAR</strong> to mark off a boundary between two <strong>SMALL</strong> units of activity.<br><br><br>Let's try again!<br><br>","demo_feedback","","","","","","","","","","","","",""
"","","","","","video-keyboard-response","11","2.0.0","236773","50","1","2026-04-04 22:20:46","5f3b61326083f69a8b1f8be321b6ee1c","75.132.83.35","Mozilla/5.0 (Macintosh; Intel Mac OS X 10_15_7) AppleWebKit/537.36 (KHTML, like Gecko) Chrome/146.0.0.0 Safari/537.36","Macintosh","Chrome","146.0.0.0","OS X","10_15_7","https://uencdihehs.cognition.run/","en,zh-CN;q=0.9,zh;q=0.8","32","[""P1"",""U2"",""U3"",""P4"",""U6"",""P7"",""U5"",""U8"",""P9"",""P10"",""P11"",""U12"",""P13"",""U14"",""U15"",""P16"",""P17"",""U18"",""U19"",""P20"",""U21"",""P22"",""P23"",""P24"",""U25"",""U26"",""P27"",""P28"",""P31"",""U32"",""P29"",""P30""]","[""U1"",""P2"",""P3"",""U4"",""P6"",""U7"",""P5"",""P8"",""U9"",""U10"",""U11"",""P12"",""U13"",""P14"",""P15"",""U16"",""U17"",""P18"",""P19"",""U20"",""P21"",""U22"",""U23"",""U24"",""P25"",""P26"",""U27"",""U28"",""U31"",""P32"",""U29"",""U30""]","[{""set_index"":1,""original_numbers"":[1,2,3,4],""ordered_numbers"":[1,2,3,4],""order_type"":""canonical"",""block1_codes"":[""P1"",""U2"",""U3"",""P4""],""block2_codes"":[""U1"",""P2"",""P3"",""U4""]},{""set_index"":2,""original_numbers"":[5,6,7,8],""ordered_numbers"":[6,7,5,8],""order_type"":""shuffled"",""block1_codes"":[""U6"",""P7"",""U5"",""U8""],""block2_codes"":[""P6"",""U7"",""P5"",""P8""]},{""set_index"":3,""original_numbers"":[9,10,11,12],""ordered_numbers"":[9,10,11,12],""order_type"":""canonical"",""block1_codes"":[""P9"",""P10"",""P11"",""U12""],""block2_codes"":[""U9"",""U10"",""U11"",""P12""]},{""set_index"":4,""original_numbers"":[13,14,15,16],""ordered_numbers"":[13,14,15,16],""order_type"":""canonical"",""block1_codes"":[""P13"",""U14"",""U15"",""P16""],""block2_codes"":[""U13"",""P14"",""P15"",""U16""]},{""set_index"":5,""original_numbers"":[17,18,19,20],""ordered_numbers"":[17,18,19,20],""order_type"":""canonical"",""block1_codes"":[""P17"",""U18"",""U19"",""P20""],""block2_codes"":[""U17"",""P18"",""P19"",""U20""]},{""set_index"":6,""original_numbers"":[21,22,23,24],""ordered_numbers"":[21,22,23,24],""order_type"":""canonical"",""block1_codes"":[""U21"",""P22"",""P23"",""P24""],""block2_codes"":[""P21"",""U22"",""U23"",""U24""]},{""set_index"":7,""original_numbers"":[25,26,27,28],""ordered_numbers"":[25,26,27,28],""order_type"":""canonical"",""block1_codes"":[""U25"",""U26"",""P27"",""P28""],""block2_codes"":[""P25"",""P26"",""U27"",""U28""]},{""set_index"":8,""original_numbers"":[29,30,31,32],""ordered_numbers"":[31,32,29,30],""order_type"":""shuffled"",""block1_codes"":[""P31"",""U32"",""P29"",""P30""],""block2_codes"":[""U31"",""P32"",""U29"",""U30""]}]","101","null","null","","[""garden_v2.mp4""]","demo_video","3","demo3","garden_v2.mp4","[43.349313,3.080599,43.349313,10.578098,43.349313,19.185371,43.349313,24.447829,43.349313,32.574194]","10","","","","","","","",""
"","","","","","call-function","12","2.0.0","236774","50","1","2026-04-04 22:20:46","5f3b61326083f69a8b1f8be321b6ee1c","75.132.83.35","Mozilla/5.0 (Macintosh; Intel Mac OS X 10_15_7) AppleWebKit/537.36 (KHTML, like Gecko) Chrome/146.0.0.0 Safari/537.36","Macintosh","Chrome","146.0.0.0","OS X","10_15_7","https://uencdihehs.cognition.run/","en,zh-CN;q=0.9,zh;q=0.8","32","[""P1"",""U2"",""U3"",""P4"",""U6"",""P7"",""U5"",""U8"",""P9"",""P10"",""P11"",""U12"",""P13"",""U14"",""U15"",""P16"",""P17"",""U18"",""U19"",""P20"",""U21"",""P22"",""P23"",""P24"",""U25"",""U26"",""P27"",""P28"",""P31"",""U32"",""P29"",""P30""]","[""U1"",""P2"",""P3"",""U4"",""P6"",""U7"",""P5"",""P8"",""U9"",""U10"",""U11"",""P12"",""U13"",""P14"",""P15"",""U16"",""U17"",""P18"",""P19"",""U20"",""P21"",""U22"",""U23"",""U24"",""P25"",""P26"",""U27"",""U28"",""U31"",""P32"",""U29"",""U30""]","[{""set_index"":1,""original_numbers"":[1,2,3,4],""ordered_numbers"":[1,2,3,4],""order_type"":""canonical"",""block1_codes"":[""P1"",""U2"",""U3"",""P4""],""block2_codes"":[""U1"",""P2"",""P3"",""U4""]},{""set_index"":2,""original_numbers"":[5,6,7,8],""ordered_numbers"":[6,7,5,8],""order_type"":""shuffled"",""block1_codes"":[""U6"",""P7"",""U5"",""U8""],""block2_codes"":[""P6"",""U7"",""P5"",""P8""]},{""set_index"":3,""original_numbers"":[9,10,11,12],""ordered_numbers"":[9,10,11,12],""order_type"":""canonical"",""block1_codes"":[""P9"",""P10"",""P11"",""U12""],""block2_codes"":[""U9"",""U10"",""U11"",""P12""]},{""set_index"":4,""original_numbers"":[13,14,15,16],""ordered_numbers"":[13,14,15,16],""order_type"":""canonical"",""block1_codes"":[""P13"",""U14"",""U15"",""P16""],""block2_codes"":[""U13"",""P14"",""P15"",""U16""]},{""set_index"":5,""original_numbers"":[17,18,19,20],""ordered_numbers"":[17,18,19,20],""order_type"":""canonical"",""block1_codes"":[""P17"",""U18"",""U19"",""P20""],""block2_codes"":[""U17"",""P18"",""P19"",""U20""]},{""set_index"":6,""original_numbers"":[21,22,23,24],""ordered_numbers"":[21,22,23,24],""order_type"":""canonical"",""block1_codes"":[""U21"",""P22"",""P23"",""P24""],""block2_codes"":[""P21"",""U22"",""U23"",""U24""]},{""set_index"":7,""original_numbers"":[25,26,27,28],""ordered_numbers"":[25,26,27,28],""order_type"":""canonical"",""block1_codes"":[""U25"",""U26"",""P27"",""P28""],""block2_codes"":[""P25"",""P26"",""U27"",""U28""]},{""set_index"":8,""original_numbers"":[29,30,31,32],""ordered_numbers"":[31,32,29,30],""order_type"":""shuffled"",""block1_codes"":[""P31"",""U32"",""P29"",""P30""],""block2_codes"":[""U31"",""P32"",""U29"",""U30""]}]","101","","","","","","","","","","","","","","","","","",""
"","","","","","html-button-response","13","2.0.0","238179","50","1","2026-04-04 22:20:46","5f3b61326083f69a8b1f8be321b6ee1c","75.132.83.35","Mozilla/5.0 (Macintosh; Intel Mac OS X 10_15_7) AppleWebKit/537.36 (KHTML, like Gecko) Chrome/146.0.0.0 Safari/537.36","Macintosh","Chrome","146.0.0.0","OS X","10_15_7","https://uencdihehs.cognition.run/","en,zh-CN;q=0.9,zh;q=0.8","32","[""P1"",""U2"",""U3"",""P4"",""U6"",""P7"",""U5"",""U8"",""P9"",""P10"",""P11"",""U12"",""P13"",""U14"",""U15"",""P16"",""P17"",""U18"",""U19"",""P20"",""U21"",""P22"",""P23"",""P24"",""U25"",""U26"",""P27"",""P28"",""P31"",""U32"",""P29"",""P30""]","[""U1"",""P2"",""P3"",""U4"",""P6"",""U7"",""P5"",""P8"",""U9"",""U10"",""U11"",""P12"",""U13"",""P14"",""P15"",""U16"",""U17"",""P18"",""P19"",""U20"",""P21"",""U22"",""U23"",""U24"",""P25"",""P26"",""U27"",""U28"",""U31"",""P32"",""U29"",""U30""]","[{""set_index"":1,""original_numbers"":[1,2,3,4],""ordered_numbers"":[1,2,3,4],""order_type"":""canonical"",""block1_codes"":[""P1"",""U2"",""U3"",""P4""],""block2_codes"":[""U1"",""P2"",""P3"",""U4""]},{""set_index"":2,""original_numbers"":[5,6,7,8],""ordered_numbers"":[6,7,5,8],""order_type"":""shuffled"",""block1_codes"":[""U6"",""P7"",""U5"",""U8""],""block2_codes"":[""P6"",""U7"",""P5"",""P8""]},{""set_index"":3,""original_numbers"":[9,10,11,12],""ordered_numbers"":[9,10,11,12],""order_type"":""canonical"",""block1_codes"":[""P9"",""P10"",""P11"",""U12""],""block2_codes"":[""U9"",""U10"",""U11"",""P12""]},{""set_index"":4,""original_numbers"":[13,14,15,16],""ordered_numbers"":[13,14,15,16],""order_type"":""canonical"",""block1_codes"":[""P13"",""U14"",""U15"",""P16""],""block2_codes"":[""U13"",""P14"",""P15"",""U16""]},{""set_index"":5,""original_numbers"":[17,18,19,20],""ordered_numbers"":[17,18,19,20],""order_type"":""canonical"",""block1_codes"":[""P17"",""U18"",""U19"",""P20""],""block2_codes"":[""U17"",""P18"",""P19"",""U20""]},{""set_index"":6,""original_numbers"":[21,22,23,24],""ordered_numbers"":[21,22,23,24],""order_type"":""canonical"",""block1_codes"":[""U21"",""P22"",""P23"",""P24""],""block2_codes"":[""P21"",""U22"",""U23"",""U24""]},{""set_index"":7,""original_numbers"":[25,26,27,28],""ordered_numbers"":[25,26,27,28],""order_type"":""canonical"",""block1_codes"":[""U25"",""U26"",""P27"",""P28""],""block2_codes"":[""P25"",""P26"",""U27"",""U28""]},{""set_index"":8,""original_numbers"":[29,30,31,32],""ordered_numbers"":[31,32,29,30],""order_type"":""shuffled"",""block1_codes"":[""P31"",""U32"",""P29"",""P30""],""block2_codes"":[""U31"",""P32"",""U29"",""U30""]}]","101","1402","0","","Usually people tend to press the button more numbers of times than you did.<br><br><br>As a reminder, press the <strong>SPACE BAR</strong> to mark off a boundary between two <strong>SMALL</strong> units of activity.<br><br><br>Let's try again!<br><br>","demo_feedback","","","","","","","","","","","","",""
"","","","","","video-keyboard-response","14","2.0.0","281654","50","1","2026-04-04 22:20:46","5f3b61326083f69a8b1f8be321b6ee1c","75.132.83.35","Mozilla/5.0 (Macintosh; Intel Mac OS X 10_15_7) AppleWebKit/537.36 (KHTML, like Gecko) Chrome/146.0.0.0 Safari/537.36","Macintosh","Chrome","146.0.0.0","OS X","10_15_7","https://uencdihehs.cognition.run/","en,zh-CN;q=0.9,zh;q=0.8","32","[""P1"",""U2"",""U3"",""P4"",""U6"",""P7"",""U5"",""U8"",""P9"",""P10"",""P11"",""U12"",""P13"",""U14"",""U15"",""P16"",""P17"",""U18"",""U19"",""P20"",""U21"",""P22"",""P23"",""P24"",""U25"",""U26"",""P27"",""P28"",""P31"",""U32"",""P29"",""P30""]","[""U1"",""P2"",""P3"",""U4"",""P6"",""U7"",""P5"",""P8"",""U9"",""U10"",""U11"",""P12"",""U13"",""P14"",""P15"",""U16"",""U17"",""P18"",""P19"",""U20"",""P21"",""U22"",""U23"",""U24"",""P25"",""P26"",""U27"",""U28"",""U31"",""P32"",""U29"",""U30""]","[{""set_index"":1,""original_numbers"":[1,2,3,4],""ordered_numbers"":[1,2,3,4],""order_type"":""canonical"",""block1_codes"":[""P1"",""U2"",""U3"",""P4""],""block2_codes"":[""U1"",""P2"",""P3"",""U4""]},{""set_index"":2,""original_numbers"":[5,6,7,8],""ordered_numbers"":[6,7,5,8],""order_type"":""shuffled"",""block1_codes"":[""U6"",""P7"",""U5"",""U8""],""block2_codes"":[""P6"",""U7"",""P5"",""P8""]},{""set_index"":3,""original_numbers"":[9,10,11,12],""ordered_numbers"":[9,10,11,12],""order_type"":""canonical"",""block1_codes"":[""P9"",""P10"",""P11"",""U12""],""block2_codes"":[""U9"",""U10"",""U11"",""P12""]},{""set_index"":4,""original_numbers"":[13,14,15,16],""ordered_numbers"":[13,14,15,16],""order_type"":""canonical"",""block1_codes"":[""P13"",""U14"",""U15"",""P16""],""block2_codes"":[""U13"",""P14"",""P15"",""U16""]},{""set_index"":5,""original_numbers"":[17,18,19,20],""ordered_numbers"":[17,18,19,20],""order_type"":""canonical"",""block1_codes"":[""P17"",""U18"",""U19"",""P20""],""block2_codes"":[""U17"",""P18"",""P19"",""U20""]},{""set_index"":6,""original_numbers"":[21,22,23,24],""ordered_numbers"":[21,22,23,24],""order_type"":""canonical"",""block1_codes"":[""U21"",""P22"",""P23"",""P24""],""block2_codes"":[""P21"",""U22"",""U23"",""U24""]},{""set_index"":7,""original_numbers"":[25,26,27,28],""ordered_numbers"":[25,26,27,28],""order_type"":""canonical"",""block1_codes"":[""U25"",""U26"",""P27"",""P28""],""block2_codes"":[""P25"",""P26"",""U27"",""U28""]},{""set_index"":8,""original_numbers"":[29,30,31,32],""ordered_numbers"":[31,32,29,30],""order_type"":""shuffled"",""block1_codes"":[""P31"",""U32"",""P29"",""P30""],""block2_codes"":[""U31"",""P32"",""U29"",""U30""]}]","101","null","null","","[""getting_ready_v2.mp4""]","demo_video","4","demo4","getting_ready_v2.mp4","[43.349313,35.413313,14.373243,43.349313,35.413313,21.588806,43.349313,35.413313,34.607251]","9","","","","","","","",""
"","","","","","call-function","15","2.0.0","281656","50","1","2026-04-04 22:20:46","5f3b61326083f69a8b1f8be321b6ee1c","75.132.83.35","Mozilla/5.0 (Macintosh; Intel Mac OS X 10_15_7) AppleWebKit/537.36 (KHTML, like Gecko) Chrome/146.0.0.0 Safari/537.36","Macintosh","Chrome","146.0.0.0","OS X","10_15_7","https://uencdihehs.cognition.run/","en,zh-CN;q=0.9,zh;q=0.8","32","[""P1"",""U2"",""U3"",""P4"",""U6"",""P7"",""U5"",""U8"",""P9"",""P10"",""P11"",""U12"",""P13"",""U14"",""U15"",""P16"",""P17"",""U18"",""U19"",""P20"",""U21"",""P22"",""P23"",""P24"",""U25"",""U26"",""P27"",""P28"",""P31"",""U32"",""P29"",""P30""]","[""U1"",""P2"",""P3"",""U4"",""P6"",""U7"",""P5"",""P8"",""U9"",""U10"",""U11"",""P12"",""U13"",""P14"",""P15"",""U16"",""U17"",""P18"",""P19"",""U20"",""P21"",""U22"",""U23"",""U24"",""P25"",""P26"",""U27"",""U28"",""U31"",""P32"",""U29"",""U30""]","[{""set_index"":1,""original_numbers"":[1,2,3,4],""ordered_numbers"":[1,2,3,4],""order_type"":""canonical"",""block1_codes"":[""P1"",""U2"",""U3"",""P4""],""block2_codes"":[""U1"",""P2"",""P3"",""U4""]},{""set_index"":2,""original_numbers"":[5,6,7,8],""ordered_numbers"":[6,7,5,8],""order_type"":""shuffled"",""block1_codes"":[""U6"",""P7"",""U5"",""U8""],""block2_codes"":[""P6"",""U7"",""P5"",""P8""]},{""set_index"":3,""original_numbers"":[9,10,11,12],""ordered_numbers"":[9,10,11,12],""order_type"":""canonical"",""block1_codes"":[""P9"",""P10"",""P11"",""U12""],""block2_codes"":[""U9"",""U10"",""U11"",""P12""]},{""set_index"":4,""original_numbers"":[13,14,15,16],""ordered_numbers"":[13,14,15,16],""order_type"":""canonical"",""block1_codes"":[""P13"",""U14"",""U15"",""P16""],""block2_codes"":[""U13"",""P14"",""P15"",""U16""]},{""set_index"":5,""original_numbers"":[17,18,19,20],""ordered_numbers"":[17,18,19,20],""order_type"":""canonical"",""block1_codes"":[""P17"",""U18"",""U19"",""P20""],""block2_codes"":[""U17"",""P18"",""P19"",""U20""]},{""set_index"":6,""original_numbers"":[21,22,23,24],""ordered_numbers"":[21,22,23,24],""order_type"":""canonical"",""block1_codes"":[""U21"",""P22"",""P23"",""P24""],""block2_codes"":[""P21"",""U22"",""U23"",""U24""]},{""set_index"":7,""original_numbers"":[25,26,27,28],""ordered_numbers"":[25,26,27,28],""order_type"":""canonical"",""block1_codes"":[""U25"",""U26"",""P27"",""P28""],""block2_codes"":[""P25"",""P26"",""U27"",""U28""]},{""set_index"":8,""original_numbers"":[29,30,31,32],""ordered_numbers"":[31,32,29,30],""order_type"":""shuffled"",""block1_codes"":[""P31"",""U32"",""P29"",""P30""],""block2_codes"":[""U31"",""P32"",""U29"",""U30""]}]","101","","","","","","","","","","","","","","","","","",""
"","","","","","html-button-response","16","2.0.0","298399","50","1","2026-04-04 22:20:46","5f3b61326083f69a8b1f8be321b6ee1c","75.132.83.35","Mozilla/5.0 (Macintosh; Intel Mac OS X 10_15_7) AppleWebKit/537.36 (KHTML, like Gecko) Chrome/146.0.0.0 Safari/537.36","Macintosh","Chrome","146.0.0.0","OS X","10_15_7","https://uencdihehs.cognition.run/","en,zh-CN;q=0.9,zh;q=0.8","32","[""P1"",""U2"",""U3"",""P4"",""U6"",""P7"",""U5"",""U8"",""P9"",""P10"",""P11"",""U12"",""P13"",""U14"",""U15"",""P16"",""P17"",""U18"",""U19"",""P20"",""U21"",""P22"",""P23"",""P24"",""U25"",""U26"",""P27"",""P28"",""P31"",""U32"",""P29"",""P30""]","[""U1"",""P2"",""P3"",""U4"",""P6"",""U7"",""P5"",""P8"",""U9"",""U10"",""U11"",""P12"",""U13"",""P14"",""P15"",""U16"",""U17"",""P18"",""P19"",""U20"",""P21"",""U22"",""U23"",""U24"",""P25"",""P26"",""U27"",""U28"",""U31"",""P32"",""U29"",""U30""]","[{""set_index"":1,""original_numbers"":[1,2,3,4],""ordered_numbers"":[1,2,3,4],""order_type"":""canonical"",""block1_codes"":[""P1"",""U2"",""U3"",""P4""],""block2_codes"":[""U1"",""P2"",""P3"",""U4""]},{""set_index"":2,""original_numbers"":[5,6,7,8],""ordered_numbers"":[6,7,5,8],""order_type"":""shuffled"",""block1_codes"":[""U6"",""P7"",""U5"",""U8""],""block2_codes"":[""P6"",""U7"",""P5"",""P8""]},{""set_index"":3,""original_numbers"":[9,10,11,12],""ordered_numbers"":[9,10,11,12],""order_type"":""canonical"",""block1_codes"":[""P9"",""P10"",""P11"",""U12""],""block2_codes"":[""U9"",""U10"",""U11"",""P12""]},{""set_index"":4,""original_numbers"":[13,14,15,16],""ordered_numbers"":[13,14,15,16],""order_type"":""canonical"",""block1_codes"":[""P13"",""U14"",""U15"",""P16""],""block2_codes"":[""U13"",""P14"",""P15"",""U16""]},{""set_index"":5,""original_numbers"":[17,18,19,20],""ordered_numbers"":[17,18,19,20],""order_type"":""canonical"",""block1_codes"":[""P17"",""U18"",""U19"",""P20""],""block2_codes"":[""U17"",""P18"",""P19"",""U20""]},{""set_index"":6,""original_numbers"":[21,22,23,24],""ordered_numbers"":[21,22,23,24],""order_type"":""canonical"",""block1_codes"":[""U21"",""P22"",""P23"",""P24""],""block2_codes"":[""P21"",""U22"",""U23"",""U24""]},{""set_index"":7,""original_numbers"":[25,26,27,28],""ordered_numbers"":[25,26,27,28],""order_type"":""canonical"",""block1_codes"":[""U25"",""U26"",""P27"",""P28""],""block2_codes"":[""P25"",""P26"",""U27"",""U28""]},{""set_index"":8,""original_numbers"":[29,30,31,32],""ordered_numbers"":[31,32,29,30],""order_type"":""shuffled"",""block1_codes"":[""P31"",""U32"",""P29"",""P30""],""block2_codes"":[""U31"",""P32"",""U29"",""U30""]}]","101","16739","0","","Great! Hopefully you got an idea of what a meaningful unit is.<br>Remember that there is no right or wrong answer.<br> We just want to know if there are certain subunits of the video that you think are natural and meaningful.<br><br><br>Now the main experiment starts.<br> You will watch multiples videos depicting everyday activities.<br>For each clip, while watching, remember to mark off boundaries between two <strong>SMALL</strong> units of activity by pressing the SPACE bar.<br>Please pay <strong>full attention</strong> while watching. You might be tested on what happened in each clip in details later.<br><br><br>","demo_feedback","","","","","","","","","","","","",""
"true","false","[]","[]","[]","preload","17","2.0.0","311701","50","1","2026-04-04 22:20:46","5f3b61326083f69a8b1f8be321b6ee1c","75.132.83.35","Mozilla/5.0 (Macintosh; Intel Mac OS X 10_15_7) AppleWebKit/537.36 (KHTML, like Gecko) Chrome/146.0.0.0 Safari/537.36","Macintosh","Chrome","146.0.0.0","OS X","10_15_7","https://uencdihehs.cognition.run/","en,zh-CN;q=0.9,zh;q=0.8","32","[""P1"",""U2"",""U3"",""P4"",""U6"",""P7"",""U5"",""U8"",""P9"",""P10"",""P11"",""U12"",""P13"",""U14"",""U15"",""P16"",""P17"",""U18"",""U19"",""P20"",""U21"",""P22"",""P23"",""P24"",""U25"",""U26"",""P27"",""P28"",""P31"",""U32"",""P29"",""P30""]","[""U1"",""P2"",""P3"",""U4"",""P6"",""U7"",""P5"",""P8"",""U9"",""U10"",""U11"",""P12"",""U13"",""P14"",""P15"",""U16"",""U17"",""P18"",""P19"",""U20"",""P21"",""U22"",""U23"",""U24"",""P25"",""P26"",""U27"",""U28"",""U31"",""P32"",""U29"",""U30""]","[{""set_index"":1,""original_numbers"":[1,2,3,4],""ordered_numbers"":[1,2,3,4],""order_type"":""canonical"",""block1_codes"":[""P1"",""U2"",""U3"",""P4""],""block2_codes"":[""U1"",""P2"",""P3"",""U4""]},{""set_index"":2,""original_numbers"":[5,6,7,8],""ordered_numbers"":[6,7,5,8],""order_type"":""shuffled"",""block1_codes"":[""U6"",""P7"",""U5"",""U8""],""block2_codes"":[""P6"",""U7"",""P5"",""P8""]},{""set_index"":3,""original_numbers"":[9,10,11,12],""ordered_numbers"":[9,10,11,12],""order_type"":""canonical"",""block1_codes"":[""P9"",""P10"",""P11"",""U12""],""block2_codes"":[""U9"",""U10"",""U11"",""P12""]},{""set_index"":4,""original_numbers"":[13,14,15,16],""ordered_numbers"":[13,14,15,16],""order_type"":""canonical"",""block1_codes"":[""P13"",""U14"",""U15"",""P16""],""block2_codes"":[""U13"",""P14"",""P15"",""U16""]},{""set_index"":5,""original_numbers"":[17,18,19,20],""ordered_numbers"":[17,18,19,20],""order_type"":""canonical"",""block1_codes"":[""P17"",""U18"",""U19"",""P20""],""block2_codes"":[""U17"",""P18"",""P19"",""U20""]},{""set_index"":6,""original_numbers"":[21,22,23,24],""ordered_numbers"":[21,22,23,24],""order_type"":""canonical"",""block1_codes"":[""U21"",""P22"",""P23"",""P24""],""block2_codes"":[""P21"",""U22"",""U23"",""U24""]},{""set_index"":7,""original_numbers"":[25,26,27,28],""ordered_numbers"":[25,26,27,28],""order_type"":""canonical"",""block1_codes"":[""U25"",""U26"",""P27"",""P28""],""block2_codes"":[""P25"",""P26"",""U27"",""U28""]},{""set_index"":8,""original_numbers"":[29,30,31,32],""ordered_numbers"":[31,32,29,30],""order_type"":""shuffled"",""block1_codes"":[""P31"",""U32"",""P29"",""P30""],""block2_codes"":[""U31"",""P32"",""U29"",""U30""]}]","101","","","","","","","","","","","","","","","","","",""
"","","","","","video-keyboard-response","18","2.0.0","340616","50","1","2026-04-04 22:20:46","5f3b61326083f69a8b1f8be321b6ee1c","75.132.83.35","Mozilla/5.0 (Macintosh; Intel Mac OS X 10_15_7) AppleWebKit/537.36 (KHTML, like Gecko) Chrome/146.0.0.0 Safari/537.36","Macintosh","Chrome","146.0.0.0","OS X","10_15_7","https://uencdihehs.cognition.run/","en,zh-CN;q=0.9,zh;q=0.8","32","[""P1"",""U2"",""U3"",""P4"",""U6"",""P7"",""U5"",""U8"",""P9"",""P10"",""P11"",""U12"",""P13"",""U14"",""U15"",""P16"",""P17"",""U18"",""U19"",""P20"",""U21"",""P22"",""P23"",""P24"",""U25"",""U26"",""P27"",""P28"",""P31"",""U32"",""P29"",""P30""]","[""U1"",""P2"",""P3"",""U4"",""P6"",""U7"",""P5"",""P8"",""U9"",""U10"",""U11"",""P12"",""U13"",""P14"",""P15"",""U16"",""U17"",""P18"",""P19"",""U20"",""P21"",""U22"",""U23"",""U24"",""P25"",""P26"",""U27"",""U28"",""U31"",""P32"",""U29"",""U30""]","[{""set_index"":1,""original_numbers"":[1,2,3,4],""ordered_numbers"":[1,2,3,4],""order_type"":""canonical"",""block1_codes"":[""P1"",""U2"",""U3"",""P4""],""block2_codes"":[""U1"",""P2"",""P3"",""U4""]},{""set_index"":2,""original_numbers"":[5,6,7,8],""ordered_numbers"":[6,7,5,8],""order_type"":""shuffled"",""block1_codes"":[""U6"",""P7"",""U5"",""U8""],""block2_codes"":[""P6"",""U7"",""P5"",""P8""]},{""set_index"":3,""original_numbers"":[9,10,11,12],""ordered_numbers"":[9,10,11,12],""order_type"":""canonical"",""block1_codes"":[""P9"",""P10"",""P11"",""U12""],""block2_codes"":[""U9"",""U10"",""U11"",""P12""]},{""set_index"":4,""original_numbers"":[13,14,15,16],""ordered_numbers"":[13,14,15,16],""order_type"":""canonical"",""block1_codes"":[""P13"",""U14"",""U15"",""P16""],""block2_codes"":[""U13"",""P14"",""P15"",""U16""]},{""set_index"":5,""original_numbers"":[17,18,19,20],""ordered_numbers"":[17,18,19,20],""order_type"":""canonical"",""block1_codes"":[""P17"",""U18"",""U19"",""P20""],""block2_codes"":[""U17"",""P18"",""P19"",""U20""]},{""set_index"":6,""original_numbers"":[21,22,23,24],""ordered_numbers"":[21,22,23,24],""order_type"":""canonical"",""block1_codes"":[""U21"",""P22"",""P23"",""P24""],""block2_codes"":[""P21"",""U22"",""U23"",""U24""]},{""set_index"":7,""original_numbers"":[25,26,27,28],""ordered_numbers"":[25,26,27,28],""order_type"":""canonical"",""block1_codes"":[""U25"",""U26"",""P27"",""P28""],""block2_codes"":[""P25"",""P26"",""U27"",""U28""]},{""set_index"":8,""original_numbers"":[29,30,31,32],""ordered_numbers"":[31,32,29,30],""order_type"":""shuffled"",""block1_codes"":[""P31"",""U32"",""P29"",""P30""],""block2_codes"":[""U31"",""P32"",""U29"",""U30""]}]","101","null","null","","[""baking_v1.mp4""]","segmentation_video","","","baking_v1.mp4","[9.971761,22.071182]","2","","P1","1","1","1","false","",""
"","","","","","survey-multi-choice","19","2.0.0","348816","50","1","2026-04-04 22:20:46","5f3b61326083f69a8b1f8be321b6ee1c","75.132.83.35","Mozilla/5.0 (Macintosh; Intel Mac OS X 10_15_7) AppleWebKit/537.36 (KHTML, like Gecko) Chrome/146.0.0.0 Safari/537.36","Macintosh","Chrome","146.0.0.0","OS X","10_15_7","https://uencdihehs.cognition.run/","en,zh-CN;q=0.9,zh;q=0.8","32","[""P1"",""U2"",""U3"",""P4"",""U6"",""P7"",""U5"",""U8"",""P9"",""P10"",""P11"",""U12"",""P13"",""U14"",""U15"",""P16"",""P17"",""U18"",""U19"",""P20"",""U21"",""P22"",""P23"",""P24"",""U25"",""U26"",""P27"",""P28"",""P31"",""U32"",""P29"",""P30""]","[""U1"",""P2"",""P3"",""U4"",""P6"",""U7"",""P5"",""P8"",""U9"",""U10"",""U11"",""P12"",""U13"",""P14"",""P15"",""U16"",""U17"",""P18"",""P19"",""U20"",""P21"",""U22"",""U23"",""U24"",""P25"",""P26"",""U27"",""U28"",""U31"",""P32"",""U29"",""U30""]","[{""set_index"":1,""original_numbers"":[1,2,3,4],""ordered_numbers"":[1,2,3,4],""order_type"":""canonical"",""block1_codes"":[""P1"",""U2"",""U3"",""P4""],""block2_codes"":[""U1"",""P2"",""P3"",""U4""]},{""set_index"":2,""original_numbers"":[5,6,7,8],""ordered_numbers"":[6,7,5,8],""order_type"":""shuffled"",""block1_codes"":[""U6"",""P7"",""U5"",""U8""],""block2_codes"":[""P6"",""U7"",""P5"",""P8""]},{""set_index"":3,""original_numbers"":[9,10,11,12],""ordered_numbers"":[9,10,11,12],""order_type"":""canonical"",""block1_codes"":[""P9"",""P10"",""P11"",""U12""],""block2_codes"":[""U9"",""U10"",""U11"",""P12""]},{""set_index"":4,""original_numbers"":[13,14,15,16],""ordered_numbers"":[13,14,15,16],""order_type"":""canonical"",""block1_codes"":[""P13"",""U14"",""U15"",""P16""],""block2_codes"":[""U13"",""P14"",""P15"",""U16""]},{""set_index"":5,""original_numbers"":[17,18,19,20],""ordered_numbers"":[17,18,19,20],""order_type"":""canonical"",""block1_codes"":[""P17"",""U18"",""U19"",""P20""],""block2_codes"":[""U17"",""P18"",""P19"",""U20""]},{""set_index"":6,""original_numbers"":[21,22,23,24],""ordered_numbers"":[21,22,23,24],""order_type"":""canonical"",""block1_codes"":[""U21"",""P22"",""P23"",""P24""],""block2_codes"":[""P21"",""U22"",""U23"",""U24""]},{""set_index"":7,""original_numbers"":[25,26,27,28],""ordered_numbers"":[25,26,27,28],""order_type"":""canonical"",""block1_codes"":[""U25"",""U26"",""P27"",""P28""],""block2_codes"":[""P25"",""P26"",""U27"",""U28""]},{""set_index"":8,""original_numbers"":[29,30,31,32],""ordered_numbers"":[31,32,29,30],""order_type"":""shuffled"",""block1_codes"":[""P31"",""U32"",""P29"",""P30""],""block2_codes"":[""U31"",""P32"",""U29"",""U30""]}]","101","8197","{""confidence_rating"":""Neutral""}","","","confidence_question","","","","","","","P1","1","1","1","","[0]","Neutral"
"","","","","","video-keyboard-response","20","2.0.0","376628","50","1","2026-04-04 22:20:46","5f3b61326083f69a8b1f8be321b6ee1c","75.132.83.35","Mozilla/5.0 (Macintosh; Intel Mac OS X 10_15_7) AppleWebKit/537.36 (KHTML, like Gecko) Chrome/146.0.0.0 Safari/537.36","Macintosh","Chrome","146.0.0.0","OS X","10_15_7","https://uencdihehs.cognition.run/","en,zh-CN;q=0.9,zh;q=0.8","32","[""P1"",""U2"",""U3"",""P4"",""U6"",""P7"",""U5"",""U8"",""P9"",""P10"",""P11"",""U12"",""P13"",""U14"",""U15"",""P16"",""P17"",""U18"",""U19"",""P20"",""U21"",""P22"",""P23"",""P24"",""U25"",""U26"",""P27"",""P28"",""P31"",""U32"",""P29"",""P30""]","[""U1"",""P2"",""P3"",""U4"",""P6"",""U7"",""P5"",""P8"",""U9"",""U10"",""U11"",""P12"",""U13"",""P14"",""P15"",""U16"",""U17"",""P18"",""P19"",""U20"",""P21"",""U22"",""U23"",""U24"",""P25"",""P26"",""U27"",""U28"",""U31"",""P32"",""U29"",""U30""]","[{""set_index"":1,""original_numbers"":[1,2,3,4],""ordered_numbers"":[1,2,3,4],""order_type"":""canonical"",""block1_codes"":[""P1"",""U2"",""U3"",""P4""],""block2_codes"":[""U1"",""P2"",""P3"",""U4""]},{""set_index"":2,""original_numbers"":[5,6,7,8],""ordered_numbers"":[6,7,5,8],""order_type"":""shuffled"",""block1_codes"":[""U6"",""P7"",""U5"",""U8""],""block2_codes"":[""P6"",""U7"",""P5"",""P8""]},{""set_index"":3,""original_numbers"":[9,10,11,12],""ordered_numbers"":[9,10,11,12],""order_type"":""canonical"",""block1_codes"":[""P9"",""P10"",""P11"",""U12""],""block2_codes"":[""U9"",""U10"",""U11"",""P12""]},{""set_index"":4,""original_numbers"":[13,14,15,16],""ordered_numbers"":[13,14,15,16],""order_type"":""canonical"",""block1_codes"":[""P13"",""U14"",""U15"",""P16""],""block2_codes"":[""U13"",""P14"",""P15"",""U16""]},{""set_index"":5,""original_numbers"":[17,18,19,20],""ordered_numbers"":[17,18,19,20],""order_type"":""canonical"",""block1_codes"":[""P17"",""U18"",""U19"",""P20""],""block2_codes"":[""U17"",""P18"",""P19"",""U20""]},{""set_index"":6,""original_numbers"":[21,22,23,24],""ordered_numbers"":[21,22,23,24],""order_type"":""canonical"",""block1_codes"":[""U21"",""P22"",""P23"",""P24""],""block2_codes"":[""P21"",""U22"",""U23"",""U24""]},{""set_index"":7,""original_numbers"":[25,26,27,28],""ordered_numbers"":[25,26,27,28],""order_type"":""canonical"",""block1_codes"":[""U25"",""U26"",""P27"",""P28""],""block2_codes"":[""P25"",""P26"",""U27"",""U28""]},{""set_index"":8,""original_numbers"":[29,30,31,32],""ordered_numbers"":[31,32,29,30],""order_type"":""shuffled"",""block1_codes"":[""P31"",""U32"",""P29"",""P30""],""block2_codes"":[""U31"",""P32"",""U29"",""U30""]}]","101","null","null","","[""balcony_v2.mp4""]","segmentation_video","","","balcony_v2.mp4","[5.004288,8.646857,23.230931]","3","","U2","2","1","2","false","",""
"","","","","","survey-multi-choice","21","2.0.0","379842","50","1","2026-04-04 22:20:46","5f3b61326083f69a8b1f8be321b6ee1c","75.132.83.35","Mozilla/5.0 (Macintosh; Intel Mac OS X 10_15_7) AppleWebKit/537.36 (KHTML, like Gecko) Chrome/146.0.0.0 Safari/537.36","Macintosh","Chrome","146.0.0.0","OS X","10_15_7","https://uencdihehs.cognition.run/","en,zh-CN;q=0.9,zh;q=0.8","32","[""P1"",""U2"",""U3"",""P4"",""U6"",""P7"",""U5"",""U8"",""P9"",""P10"",""P11"",""U12"",""P13"",""U14"",""U15"",""P16"",""P17"",""U18"",""U19"",""P20"",""U21"",""P22"",""P23"",""P24"",""U25"",""U26"",""P27"",""P28"",""P31"",""U32"",""P29"",""P30""]","[""U1"",""P2"",""P3"",""U4"",""P6"",""U7"",""P5"",""P8"",""U9"",""U10"",""U11"",""P12"",""U13"",""P14"",""P15"",""U16"",""U17"",""P18"",""P19"",""U20"",""P21"",""U22"",""U23"",""U24"",""P25"",""P26"",""U27"",""U28"",""U31"",""P32"",""U29"",""U30""]","[{""set_index"":1,""original_numbers"":[1,2,3,4],""ordered_numbers"":[1,2,3,4],""order_type"":""canonical"",""block1_codes"":[""P1"",""U2"",""U3"",""P4""],""block2_codes"":[""U1"",""P2"",""P3"",""U4""]},{""set_index"":2,""original_numbers"":[5,6,7,8],""ordered_numbers"":[6,7,5,8],""order_type"":""shuffled"",""block1_codes"":[""U6"",""P7"",""U5"",""U8""],""block2_codes"":[""P6"",""U7"",""P5"",""P8""]},{""set_index"":3,""original_numbers"":[9,10,11,12],""ordered_numbers"":[9,10,11,12],""order_type"":""canonical"",""block1_codes"":[""P9"",""P10"",""P11"",""U12""],""block2_codes"":[""U9"",""U10"",""U11"",""P12""]},{""set_index"":4,""original_numbers"":[13,14,15,16],""ordered_numbers"":[13,14,15,16],""order_type"":""canonical"",""block1_codes"":[""P13"",""U14"",""U15"",""P16""],""block2_codes"":[""U13"",""P14"",""P15"",""U16""]},{""set_index"":5,""original_numbers"":[17,18,19,20],""ordered_numbers"":[17,18,19,20],""order_type"":""canonical"",""block1_codes"":[""P17"",""U18"",""U19"",""P20""],""block2_codes"":[""U17"",""P18"",""P19"",""U20""]},{""set_index"":6,""original_numbers"":[21,22,23,24],""ordered_numbers"":[21,22,23,24],""order_type"":""canonical"",""block1_codes"":[""U21"",""P22"",""P23"",""P24""],""block2_codes"":[""P21"",""U22"",""U23"",""U24""]},{""set_index"":7,""original_numbers"":[25,26,27,28],""ordered_numbers"":[25,26,27,28],""order_type"":""canonical"",""block1_codes"":[""U25"",""U26"",""P27"",""P28""],""block2_codes"":[""P25"",""P26"",""U27"",""U28""]},{""set_index"":8,""original_numbers"":[29,30,31,32],""ordered_numbers"":[31,32,29,30],""order_type"":""shuffled"",""block1_codes"":[""P31"",""U32"",""P29"",""P30""],""block2_codes"":[""U31"",""P32"",""U29"",""U30""]}]","101","3211","{""confidence_rating"":""Moderately confident""}","","","confidence_question","","","","","","","U2","2","1","2","","[0]","Moderately confident"
"","","","","","video-keyboard-response","22","2.0.0","399058","50","1","2026-04-04 22:20:46","5f3b61326083f69a8b1f8be321b6ee1c","75.132.83.35","Mozilla/5.0 (Macintosh; Intel Mac OS X 10_15_7) AppleWebKit/537.36 (KHTML, like Gecko) Chrome/146.0.0.0 Safari/537.36","Macintosh","Chrome","146.0.0.0","OS X","10_15_7","https://uencdihehs.cognition.run/","en,zh-CN;q=0.9,zh;q=0.8","32","[""P1"",""U2"",""U3"",""P4"",""U6"",""P7"",""U5"",""U8"",""P9"",""P10"",""P11"",""U12"",""P13"",""U14"",""U15"",""P16"",""P17"",""U18"",""U19"",""P20"",""U21"",""P22"",""P23"",""P24"",""U25"",""U26"",""P27"",""P28"",""P31"",""U32"",""P29"",""P30""]","[""U1"",""P2"",""P3"",""U4"",""P6"",""U7"",""P5"",""P8"",""U9"",""U10"",""U11"",""P12"",""U13"",""P14"",""P15"",""U16"",""U17"",""P18"",""P19"",""U20"",""P21"",""U22"",""U23"",""U24"",""P25"",""P26"",""U27"",""U28"",""U31"",""P32"",""U29"",""U30""]","[{""set_index"":1,""original_numbers"":[1,2,3,4],""ordered_numbers"":[1,2,3,4],""order_type"":""canonical"",""block1_codes"":[""P1"",""U2"",""U3"",""P4""],""block2_codes"":[""U1"",""P2"",""P3"",""U4""]},{""set_index"":2,""original_numbers"":[5,6,7,8],""ordered_numbers"":[6,7,5,8],""order_type"":""shuffled"",""block1_codes"":[""U6"",""P7"",""U5"",""U8""],""block2_codes"":[""P6"",""U7"",""P5"",""P8""]},{""set_index"":3,""original_numbers"":[9,10,11,12],""ordered_numbers"":[9,10,11,12],""order_type"":""canonical"",""block1_codes"":[""P9"",""P10"",""P11"",""U12""],""block2_codes"":[""U9"",""U10"",""U11"",""P12""]},{""set_index"":4,""original_numbers"":[13,14,15,16],""ordered_numbers"":[13,14,15,16],""order_type"":""canonical"",""block1_codes"":[""P13"",""U14"",""U15"",""P16""],""block2_codes"":[""U13"",""P14"",""P15"",""U16""]},{""set_index"":5,""original_numbers"":[17,18,19,20],""ordered_numbers"":[17,18,19,20],""order_type"":""canonical"",""block1_codes"":[""P17"",""U18"",""U19"",""P20""],""block2_codes"":[""U17"",""P18"",""P19"",""U20""]},{""set_index"":6,""original_numbers"":[21,22,23,24],""ordered_numbers"":[21,22,23,24],""order_type"":""canonical"",""block1_codes"":[""U21"",""P22"",""P23"",""P24""],""block2_codes"":[""P21"",""U22"",""U23"",""U24""]},{""set_index"":7,""original_numbers"":[25,26,27,28],""ordered_numbers"":[25,26,27,28],""order_type"":""canonical"",""block1_codes"":[""U25"",""U26"",""P27"",""P28""],""block2_codes"":[""P25"",""P26"",""U27"",""U28""]},{""set_index"":8,""original_numbers"":[29,30,31,32],""ordered_numbers"":[31,32,29,30],""order_type"":""shuffled"",""block1_codes"":[""P31"",""U32"",""P29"",""P30""],""block2_codes"":[""U31"",""P32"",""U29"",""U30""]}]","101","null","null","","[""bank_v2.mp4""]","segmentation_video","","","bank_v2.mp4","[5.067333,12.615154,18.131498]","3","","U3","3","1","3","false","",""
"","","","","","survey-multi-choice","23","2.0.0","402726","50","1","2026-04-04 22:20:46","5f3b61326083f69a8b1f8be321b6ee1c","75.132.83.35","Mozilla/5.0 (Macintosh; Intel Mac OS X 10_15_7) AppleWebKit/537.36 (KHTML, like Gecko) Chrome/146.0.0.0 Safari/537.36","Macintosh","Chrome","146.0.0.0","OS X","10_15_7","https://uencdihehs.cognition.run/","en,zh-CN;q=0.9,zh;q=0.8","32","[""P1"",""U2"",""U3"",""P4"",""U6"",""P7"",""U5"",""U8"",""P9"",""P10"",""P11"",""U12"",""P13"",""U14"",""U15"",""P16"",""P17"",""U18"",""U19"",""P20"",""U21"",""P22"",""P23"",""P24"",""U25"",""U26"",""P27"",""P28"",""P31"",""U32"",""P29"",""P30""]","[""U1"",""P2"",""P3"",""U4"",""P6"",""U7"",""P5"",""P8"",""U9"",""U10"",""U11"",""P12"",""U13"",""P14"",""P15"",""U16"",""U17"",""P18"",""P19"",""U20"",""P21"",""U22"",""U23"",""U24"",""P25"",""P26"",""U27"",""U28"",""U31"",""P32"",""U29"",""U30""]","[{""set_index"":1,""original_numbers"":[1,2,3,4],""ordered_numbers"":[1,2,3,4],""order_type"":""canonical"",""block1_codes"":[""P1"",""U2"",""U3"",""P4""],""block2_codes"":[""U1"",""P2"",""P3"",""U4""]},{""set_index"":2,""original_numbers"":[5,6,7,8],""ordered_numbers"":[6,7,5,8],""order_type"":""shuffled"",""block1_codes"":[""U6"",""P7"",""U5"",""U8""],""block2_codes"":[""P6"",""U7"",""P5"",""P8""]},{""set_index"":3,""original_numbers"":[9,10,11,12],""ordered_numbers"":[9,10,11,12],""order_type"":""canonical"",""block1_codes"":[""P9"",""P10"",""P11"",""U12""],""block2_codes"":[""U9"",""U10"",""U11"",""P12""]},{""set_index"":4,""original_numbers"":[13,14,15,16],""ordered_numbers"":[13,14,15,16],""order_type"":""canonical"",""block1_codes"":[""P13"",""U14"",""U15"",""P16""],""block2_codes"":[""U13"",""P14"",""P15"",""U16""]},{""set_index"":5,""original_numbers"":[17,18,19,20],""ordered_numbers"":[17,18,19,20],""order_type"":""canonical"",""block1_codes"":[""P17"",""U18"",""U19"",""P20""],""block2_codes"":[""U17"",""P18"",""P19"",""U20""]},{""set_index"":6,""original_numbers"":[21,22,23,24],""ordered_numbers"":[21,22,23,24],""order_type"":""canonical"",""block1_codes"":[""U21"",""P22"",""P23"",""P24""],""block2_codes"":[""P21"",""U22"",""U23"",""U24""]},{""set_index"":7,""original_numbers"":[25,26,27,28],""ordered_numbers"":[25,26,27,28],""order_type"":""canonical"",""block1_codes"":[""U25"",""U26"",""P27"",""P28""],""block2_codes"":[""P25"",""P26"",""U27"",""U28""]},{""set_index"":8,""original_numbers"":[29,30,31,32],""ordered_numbers"":[31,32,29,30],""order_type"":""shuffled"",""block1_codes"":[""P31"",""U32"",""P29"",""P30""],""block2_codes"":[""U31"",""P32"",""U29"",""U30""]}]","101","3665","{""confidence_rating"":""Moderately confident""}","","","confidence_question","","","","","","","U3","3","1","3","","[0]","Moderately confident"
"","","","","","video-keyboard-response","24","2.0.0","437975","50","1","2026-04-04 22:20:46","5f3b61326083f69a8b1f8be321b6ee1c","75.132.83.35","Mozilla/5.0 (Macintosh; Intel Mac OS X 10_15_7) AppleWebKit/537.36 (KHTML, like Gecko) Chrome/146.0.0.0 Safari/537.36","Macintosh","Chrome","146.0.0.0","OS X","10_15_7","https://uencdihehs.cognition.run/","en,zh-CN;q=0.9,zh;q=0.8","32","[""P1"",""U2"",""U3"",""P4"",""U6"",""P7"",""U5"",""U8"",""P9"",""P10"",""P11"",""U12"",""P13"",""U14"",""U15"",""P16"",""P17"",""U18"",""U19"",""P20"",""U21"",""P22"",""P23"",""P24"",""U25"",""U26"",""P27"",""P28"",""P31"",""U32"",""P29"",""P30""]","[""U1"",""P2"",""P3"",""U4"",""P6"",""U7"",""P5"",""P8"",""U9"",""U10"",""U11"",""P12"",""U13"",""P14"",""P15"",""U16"",""U17"",""P18"",""P19"",""U20"",""P21"",""U22"",""U23"",""U24"",""P25"",""P26"",""U27"",""U28"",""U31"",""P32"",""U29"",""U30""]","[{""set_index"":1,""original_numbers"":[1,2,3,4],""ordered_numbers"":[1,2,3,4],""order_type"":""canonical"",""block1_codes"":[""P1"",""U2"",""U3"",""P4""],""block2_codes"":[""U1"",""P2"",""P3"",""U4""]},{""set_index"":2,""original_numbers"":[5,6,7,8],""ordered_numbers"":[6,7,5,8],""order_type"":""shuffled"",""block1_codes"":[""U6"",""P7"",""U5"",""U8""],""block2_codes"":[""P6"",""U7"",""P5"",""P8""]},{""set_index"":3,""original_numbers"":[9,10,11,12],""ordered_numbers"":[9,10,11,12],""order_type"":""canonical"",""block1_codes"":[""P9"",""P10"",""P11"",""U12""],""block2_codes"":[""U9"",""U10"",""U11"",""P12""]},{""set_index"":4,""original_numbers"":[13,14,15,16],""ordered_numbers"":[13,14,15,16],""order_type"":""canonical"",""block1_codes"":[""P13"",""U14"",""U15"",""P16""],""block2_codes"":[""U13"",""P14"",""P15"",""U16""]},{""set_index"":5,""original_numbers"":[17,18,19,20],""ordered_numbers"":[17,18,19,20],""order_type"":""canonical"",""block1_codes"":[""P17"",""U18"",""U19"",""P20""],""block2_codes"":[""U17"",""P18"",""P19"",""U20""]},{""set_index"":6,""original_numbers"":[21,22,23,24],""ordered_numbers"":[21,22,23,24],""order_type"":""canonical"",""block1_codes"":[""U21"",""P22"",""P23"",""P24""],""block2_codes"":[""P21"",""U22"",""U23"",""U24""]},{""set_index"":7,""original_numbers"":[25,26,27,28],""ordered_numbers"":[25,26,27,28],""order_type"":""canonical"",""block1_codes"":[""U25"",""U26"",""P27"",""P28""],""block2_codes"":[""P25"",""P26"",""U27"",""U28""]},{""set_index"":8,""original_numbers"":[29,30,31,32],""ordered_numbers"":[31,32,29,30],""order_type"":""shuffled"",""block1_codes"":[""P31"",""U32"",""P29"",""P30""],""block2_codes"":[""U31"",""P32"",""U29"",""U30""]}]","101","null","null","","[""bathroom_v1.mp4""]","segmentation_video","","","bathroom_v1.mp4","[4.61325,6.821552,8.559325,15.67109,16.882819,25.140939,28.853641,33.90009]","8","","P4","4","1","4","false","",""
"","","","","","survey-multi-choice","25","2.0.0","440095","50","1","2026-04-04 22:20:46","5f3b61326083f69a8b1f8be321b6ee1c","75.132.83.35","Mozilla/5.0 (Macintosh; Intel Mac OS X 10_15_7) AppleWebKit/537.36 (KHTML, like Gecko) Chrome/146.0.0.0 Safari/537.36","Macintosh","Chrome","146.0.0.0","OS X","10_15_7","https://uencdihehs.cognition.run/","en,zh-CN;q=0.9,zh;q=0.8","32","[""P1"",""U2"",""U3"",""P4"",""U6"",""P7"",""U5"",""U8"",""P9"",""P10"",""P11"",""U12"",""P13"",""U14"",""U15"",""P16"",""P17"",""U18"",""U19"",""P20"",""U21"",""P22"",""P23"",""P24"",""U25"",""U26"",""P27"",""P28"",""P31"",""U32"",""P29"",""P30""]","[""U1"",""P2"",""P3"",""U4"",""P6"",""U7"",""P5"",""P8"",""U9"",""U10"",""U11"",""P12"",""U13"",""P14"",""P15"",""U16"",""U17"",""P18"",""P19"",""U20"",""P21"",""U22"",""U23"",""U24"",""P25"",""P26"",""U27"",""U28"",""U31"",""P32"",""U29"",""U30""]","[{""set_index"":1,""original_numbers"":[1,2,3,4],""ordered_numbers"":[1,2,3,4],""order_type"":""canonical"",""block1_codes"":[""P1"",""U2"",""U3"",""P4""],""block2_codes"":[""U1"",""P2"",""P3"",""U4""]},{""set_index"":2,""original_numbers"":[5,6,7,8],""ordered_numbers"":[6,7,5,8],""order_type"":""shuffled"",""block1_codes"":[""U6"",""P7"",""U5"",""U8""],""block2_codes"":[""P6"",""U7"",""P5"",""P8""]},{""set_index"":3,""original_numbers"":[9,10,11,12],""ordered_numbers"":[9,10,11,12],""order_type"":""canonical"",""block1_codes"":[""P9"",""P10"",""P11"",""U12""],""block2_codes"":[""U9"",""U10"",""U11"",""P12""]},{""set_index"":4,""original_numbers"":[13,14,15,16],""ordered_numbers"":[13,14,15,16],""order_type"":""canonical"",""block1_codes"":[""P13"",""U14"",""U15"",""P16""],""block2_codes"":[""U13"",""P14"",""P15"",""U16""]},{""set_index"":5,""original_numbers"":[17,18,19,20],""ordered_numbers"":[17,18,19,20],""order_type"":""canonical"",""block1_codes"":[""P17"",""U18"",""U19"",""P20""],""block2_codes"":[""U17"",""P18"",""P19"",""U20""]},{""set_index"":6,""original_numbers"":[21,22,23,24],""ordered_numbers"":[21,22,23,24],""order_type"":""canonical"",""block1_codes"":[""U21"",""P22"",""P23"",""P24""],""block2_codes"":[""P21"",""U22"",""U23"",""U24""]},{""set_index"":7,""original_numbers"":[25,26,27,28],""ordered_numbers"":[25,26,27,28],""order_type"":""canonical"",""block1_codes"":[""U25"",""U26"",""P27"",""P28""],""block2_codes"":[""P25"",""P26"",""U27"",""U28""]},{""set_index"":8,""original_numbers"":[29,30,31,32],""ordered_numbers"":[31,32,29,30],""order_type"":""shuffled"",""block1_codes"":[""P31"",""U32"",""P29"",""P30""],""block2_codes"":[""U31"",""P32"",""U29"",""U30""]}]","101","2116","{""confidence_rating"":""Moderately confident""}","","","confidence_question","","","","","","","P4","4","1","4","","[0]","Moderately confident"
"","","","","","video-keyboard-response","26","2.0.0","474916","50","1","2026-04-04 22:20:46","5f3b61326083f69a8b1f8be321b6ee1c","75.132.83.35","Mozilla/5.0 (Macintosh; Intel Mac OS X 10_15_7) AppleWebKit/537.36 (KHTML, like Gecko) Chrome/146.0.0.0 Safari/537.36","Macintosh","Chrome","146.0.0.0","OS X","10_15_7","https://uencdihehs.cognition.run/","en,zh-CN;q=0.9,zh;q=0.8","32","[""P1"",""U2"",""U3"",""P4"",""U6"",""P7"",""U5"",""U8"",""P9"",""P10"",""P11"",""U12"",""P13"",""U14"",""U15"",""P16"",""P17"",""U18"",""U19"",""P20"",""U21"",""P22"",""P23"",""P24"",""U25"",""U26"",""P27"",""P28"",""P31"",""U32"",""P29"",""P30""]","[""U1"",""P2"",""P3"",""U4"",""P6"",""U7"",""P5"",""P8"",""U9"",""U10"",""U11"",""P12"",""U13"",""P14"",""P15"",""U16"",""U17"",""P18"",""P19"",""U20"",""P21"",""U22"",""U23"",""U24"",""P25"",""P26"",""U27"",""U28"",""U31"",""P32"",""U29"",""U30""]","[{""set_index"":1,""original_numbers"":[1,2,3,4],""ordered_numbers"":[1,2,3,4],""order_type"":""canonical"",""block1_codes"":[""P1"",""U2"",""U3"",""P4""],""block2_codes"":[""U1"",""P2"",""P3"",""U4""]},{""set_index"":2,""original_numbers"":[5,6,7,8],""ordered_numbers"":[6,7,5,8],""order_type"":""shuffled"",""block1_codes"":[""U6"",""P7"",""U5"",""U8""],""block2_codes"":[""P6"",""U7"",""P5"",""P8""]},{""set_index"":3,""original_numbers"":[9,10,11,12],""ordered_numbers"":[9,10,11,12],""order_type"":""canonical"",""block1_codes"":[""P9"",""P10"",""P11"",""U12""],""block2_codes"":[""U9"",""U10"",""U11"",""P12""]},{""set_index"":4,""original_numbers"":[13,14,15,16],""ordered_numbers"":[13,14,15,16],""order_type"":""canonical"",""block1_codes"":[""P13"",""U14"",""U15"",""P16""],""block2_codes"":[""U13"",""P14"",""P15"",""U16""]},{""set_index"":5,""original_numbers"":[17,18,19,20],""ordered_numbers"":[17,18,19,20],""order_type"":""canonical"",""block1_codes"":[""P17"",""U18"",""U19"",""P20""],""block2_codes"":[""U17"",""P18"",""P19"",""U20""]},{""set_index"":6,""original_numbers"":[21,22,23,24],""ordered_numbers"":[21,22,23,24],""order_type"":""canonical"",""block1_codes"":[""U21"",""P22"",""P23"",""P24""],""block2_codes"":[""P21"",""U22"",""U23"",""U24""]},{""set_index"":7,""original_numbers"":[25,26,27,28],""ordered_numbers"":[25,26,27,28],""order_type"":""canonical"",""block1_codes"":[""U25"",""U26"",""P27"",""P28""],""block2_codes"":[""P25"",""P26"",""U27"",""U28""]},{""set_index"":8,""original_numbers"":[29,30,31,32],""ordered_numbers"":[31,32,29,30],""order_type"":""shuffled"",""block1_codes"":[""P31"",""U32"",""P29"",""P30""],""block2_codes"":[""U31"",""P32"",""U29"",""U30""]}]","101","null","null","","[""bedding_v2.mp4""]","segmentation_video","","","bedding_v2.mp4","[7.199029,10.939902,18.682664,28.665433,31.897109,34.293159]","6","","U6","6","1","5","false","",""
"","","","","","survey-multi-choice","27","2.0.0","477142","50","1","2026-04-04 22:20:46","5f3b61326083f69a8b1f8be321b6ee1c","75.132.83.35","Mozilla/5.0 (Macintosh; Intel Mac OS X 10_15_7) AppleWebKit/537.36 (KHTML, like Gecko) Chrome/146.0.0.0 Safari/537.36","Macintosh","Chrome","146.0.0.0","OS X","10_15_7","https://uencdihehs.cognition.run/","en,zh-CN;q=0.9,zh;q=0.8","32","[""P1"",""U2"",""U3"",""P4"",""U6"",""P7"",""U5"",""U8"",""P9"",""P10"",""P11"",""U12"",""P13"",""U14"",""U15"",""P16"",""P17"",""U18"",""U19"",""P20"",""U21"",""P22"",""P23"",""P24"",""U25"",""U26"",""P27"",""P28"",""P31"",""U32"",""P29"",""P30""]","[""U1"",""P2"",""P3"",""U4"",""P6"",""U7"",""P5"",""P8"",""U9"",""U10"",""U11"",""P12"",""U13"",""P14"",""P15"",""U16"",""U17"",""P18"",""P19"",""U20"",""P21"",""U22"",""U23"",""U24"",""P25"",""P26"",""U27"",""U28"",""U31"",""P32"",""U29"",""U30""]","[{""set_index"":1,""original_numbers"":[1,2,3,4],""ordered_numbers"":[1,2,3,4],""order_type"":""canonical"",""block1_codes"":[""P1"",""U2"",""U3"",""P4""],""block2_codes"":[""U1"",""P2"",""P3"",""U4""]},{""set_index"":2,""original_numbers"":[5,6,7,8],""ordered_numbers"":[6,7,5,8],""order_type"":""shuffled"",""block1_codes"":[""U6"",""P7"",""U5"",""U8""],""block2_codes"":[""P6"",""U7"",""P5"",""P8""]},{""set_index"":3,""original_numbers"":[9,10,11,12],""ordered_numbers"":[9,10,11,12],""order_type"":""canonical"",""block1_codes"":[""P9"",""P10"",""P11"",""U12""],""block2_codes"":[""U9"",""U10"",""U11"",""P12""]},{""set_index"":4,""original_numbers"":[13,14,15,16],""ordered_numbers"":[13,14,15,16],""order_type"":""canonical"",""block1_codes"":[""P13"",""U14"",""U15"",""P16""],""block2_codes"":[""U13"",""P14"",""P15"",""U16""]},{""set_index"":5,""original_numbers"":[17,18,19,20],""ordered_numbers"":[17,18,19,20],""order_type"":""canonical"",""block1_codes"":[""P17"",""U18"",""U19"",""P20""],""block2_codes"":[""U17"",""P18"",""P19"",""U20""]},{""set_index"":6,""original_numbers"":[21,22,23,24],""ordered_numbers"":[21,22,23,24],""order_type"":""canonical"",""block1_codes"":[""U21"",""P22"",""P23"",""P24""],""block2_codes"":[""P21"",""U22"",""U23"",""U24""]},{""set_index"":7,""original_numbers"":[25,26,27,28],""ordered_numbers"":[25,26,27,28],""order_type"":""canonical"",""block1_codes"":[""U25"",""U26"",""P27"",""P28""],""block2_codes"":[""P25"",""P26"",""U27"",""U28""]},{""set_index"":8,""original_numbers"":[29,30,31,32],""ordered_numbers"":[31,32,29,30],""order_type"":""shuffled"",""block1_codes"":[""P31"",""U32"",""P29"",""P30""],""block2_codes"":[""U31"",""P32"",""U29"",""U30""]}]","101","2223","{""confidence_rating"":""Moderately confident""}","","","confidence_question","","","","","","","U6","6","1","5","","[0]","Moderately confident"
"","","","","","video-keyboard-response","28","2.0.0","506567","50","1","2026-04-04 22:20:46","5f3b61326083f69a8b1f8be321b6ee1c","75.132.83.35","Mozilla/5.0 (Macintosh; Intel Mac OS X 10_15_7) AppleWebKit/537.36 (KHTML, like Gecko) Chrome/146.0.0.0 Safari/537.36","Macintosh","Chrome","146.0.0.0","OS X","10_15_7","https://uencdihehs.cognition.run/","en,zh-CN;q=0.9,zh;q=0.8","32","[""P1"",""U2"",""U3"",""P4"",""U6"",""P7"",""U5"",""U8"",""P9"",""P10"",""P11"",""U12"",""P13"",""U14"",""U15"",""P16"",""P17"",""U18"",""U19"",""P20"",""U21"",""P22"",""P23"",""P24"",""U25"",""U26"",""P27"",""P28"",""P31"",""U32"",""P29"",""P30""]","[""U1"",""P2"",""P3"",""U4"",""P6"",""U7"",""P5"",""P8"",""U9"",""U10"",""U11"",""P12"",""U13"",""P14"",""P15"",""U16"",""U17"",""P18"",""P19"",""U20"",""P21"",""U22"",""U23"",""U24"",""P25"",""P26"",""U27"",""U28"",""U31"",""P32"",""U29"",""U30""]","[{""set_index"":1,""original_numbers"":[1,2,3,4],""ordered_numbers"":[1,2,3,4],""order_type"":""canonical"",""block1_codes"":[""P1"",""U2"",""U3"",""P4""],""block2_codes"":[""U1"",""P2"",""P3"",""U4""]},{""set_index"":2,""original_numbers"":[5,6,7,8],""ordered_numbers"":[6,7,5,8],""order_type"":""shuffled"",""block1_codes"":[""U6"",""P7"",""U5"",""U8""],""block2_codes"":[""P6"",""U7"",""P5"",""P8""]},{""set_index"":3,""original_numbers"":[9,10,11,12],""ordered_numbers"":[9,10,11,12],""order_type"":""canonical"",""block1_codes"":[""P9"",""P10"",""P11"",""U12""],""block2_codes"":[""U9"",""U10"",""U11"",""P12""]},{""set_index"":4,""original_numbers"":[13,14,15,16],""ordered_numbers"":[13,14,15,16],""order_type"":""canonical"",""block1_codes"":[""P13"",""U14"",""U15"",""P16""],""block2_codes"":[""U13"",""P14"",""P15"",""U16""]},{""set_index"":5,""original_numbers"":[17,18,19,20],""ordered_numbers"":[17,18,19,20],""order_type"":""canonical"",""block1_codes"":[""P17"",""U18"",""U19"",""P20""],""block2_codes"":[""U17"",""P18"",""P19"",""U20""]},{""set_index"":6,""original_numbers"":[21,22,23,24],""ordered_numbers"":[21,22,23,24],""order_type"":""canonical"",""block1_codes"":[""U21"",""P22"",""P23"",""P24""],""block2_codes"":[""P21"",""U22"",""U23"",""U24""]},{""set_index"":7,""original_numbers"":[25,26,27,28],""ordered_numbers"":[25,26,27,28],""order_type"":""canonical"",""block1_codes"":[""U25"",""U26"",""P27"",""P28""],""block2_codes"":[""P25"",""P26"",""U27"",""U28""]},{""set_index"":8,""original_numbers"":[29,30,31,32],""ordered_numbers"":[31,32,29,30],""order_type"":""shuffled"",""block1_codes"":[""P31"",""U32"",""P29"",""P30""],""block2_codes"":[""U31"",""P32"",""U29"",""U30""]}]","101","null","null","","[""bike_v1.mp4""]","segmentation_video","","","bike_v1.mp4","[12.064832,16.695456,22.031104,28.690996]","4","","P7","7","1","6","false","",""
"","","","","","survey-multi-choice","29","2.0.0","508681","50","1","2026-04-04 22:20:46","5f3b61326083f69a8b1f8be321b6ee1c","75.132.83.35","Mozilla/5.0 (Macintosh; Intel Mac OS X 10_15_7) AppleWebKit/537.36 (KHTML, like Gecko) Chrome/146.0.0.0 Safari/537.36","Macintosh","Chrome","146.0.0.0","OS X","10_15_7","https://uencdihehs.cognition.run/","en,zh-CN;q=0.9,zh;q=0.8","32","[""P1"",""U2"",""U3"",""P4"",""U6"",""P7"",""U5"",""U8"",""P9"",""P10"",""P11"",""U12"",""P13"",""U14"",""U15"",""P16"",""P17"",""U18"",""U19"",""P20"",""U21"",""P22"",""P23"",""P24"",""U25"",""U26"",""P27"",""P28"",""P31"",""U32"",""P29"",""P30""]","[""U1"",""P2"",""P3"",""U4"",""P6"",""U7"",""P5"",""P8"",""U9"",""U10"",""U11"",""P12"",""U13"",""P14"",""P15"",""U16"",""U17"",""P18"",""P19"",""U20"",""P21"",""U22"",""U23"",""U24"",""P25"",""P26"",""U27"",""U28"",""U31"",""P32"",""U29"",""U30""]","[{""set_index"":1,""original_numbers"":[1,2,3,4],""ordered_numbers"":[1,2,3,4],""order_type"":""canonical"",""block1_codes"":[""P1"",""U2"",""U3"",""P4""],""block2_codes"":[""U1"",""P2"",""P3"",""U4""]},{""set_index"":2,""original_numbers"":[5,6,7,8],""ordered_numbers"":[6,7,5,8],""order_type"":""shuffled"",""block1_codes"":[""U6"",""P7"",""U5"",""U8""],""block2_codes"":[""P6"",""U7"",""P5"",""P8""]},{""set_index"":3,""original_numbers"":[9,10,11,12],""ordered_numbers"":[9,10,11,12],""order_type"":""canonical"",""block1_codes"":[""P9"",""P10"",""P11"",""U12""],""block2_codes"":[""U9"",""U10"",""U11"",""P12""]},{""set_index"":4,""original_numbers"":[13,14,15,16],""ordered_numbers"":[13,14,15,16],""order_type"":""canonical"",""block1_codes"":[""P13"",""U14"",""U15"",""P16""],""block2_codes"":[""U13"",""P14"",""P15"",""U16""]},{""set_index"":5,""original_numbers"":[17,18,19,20],""ordered_numbers"":[17,18,19,20],""order_type"":""canonical"",""block1_codes"":[""P17"",""U18"",""U19"",""P20""],""block2_codes"":[""U17"",""P18"",""P19"",""U20""]},{""set_index"":6,""original_numbers"":[21,22,23,24],""ordered_numbers"":[21,22,23,24],""order_type"":""canonical"",""block1_codes"":[""U21"",""P22"",""P23"",""P24""],""block2_codes"":[""P21"",""U22"",""U23"",""U24""]},{""set_index"":7,""original_numbers"":[25,26,27,28],""ordered_numbers"":[25,26,27,28],""order_type"":""canonical"",""block1_codes"":[""U25"",""U26"",""P27"",""P28""],""block2_codes"":[""P25"",""P26"",""U27"",""U28""]},{""set_index"":8,""original_numbers"":[29,30,31,32],""ordered_numbers"":[31,32,29,30],""order_type"":""shuffled"",""block1_codes"":[""P31"",""U32"",""P29"",""P30""],""block2_codes"":[""U31"",""P32"",""U29"",""U30""]}]","101","2111","{""confidence_rating"":""Very confident""}","","","confidence_question","","","","","","","P7","7","1","6","","[0]","Very confident"
"","","","","","video-keyboard-response","30","2.0.0","535566","50","1","2026-04-04 22:20:46","5f3b61326083f69a8b1f8be321b6ee1c","75.132.83.35","Mozilla/5.0 (Macintosh; Intel Mac OS X 10_15_7) AppleWebKit/537.36 (KHTML, like Gecko) Chrome/146.0.0.0 Safari/537.36","Macintosh","Chrome","146.0.0.0","OS X","10_15_7","https://uencdihehs.cognition.run/","en,zh-CN;q=0.9,zh;q=0.8","32","[""P1"",""U2"",""U3"",""P4"",""U6"",""P7"",""U5"",""U8"",""P9"",""P10"",""P11"",""U12"",""P13"",""U14"",""U15"",""P16"",""P17"",""U18"",""U19"",""P20"",""U21"",""P22"",""P23"",""P24"",""U25"",""U26"",""P27"",""P28"",""P31"",""U32"",""P29"",""P30""]","[""U1"",""P2"",""P3"",""U4"",""P6"",""U7"",""P5"",""P8"",""U9"",""U10"",""U11"",""P12"",""U13"",""P14"",""P15"",""U16"",""U17"",""P18"",""P19"",""U20"",""P21"",""U22"",""U23"",""U24"",""P25"",""P26"",""U27"",""U28"",""U31"",""P32"",""U29"",""U30""]","[{""set_index"":1,""original_numbers"":[1,2,3,4],""ordered_numbers"":[1,2,3,4],""order_type"":""canonical"",""block1_codes"":[""P1"",""U2"",""U3"",""P4""],""block2_codes"":[""U1"",""P2"",""P3"",""U4""]},{""set_index"":2,""original_numbers"":[5,6,7,8],""ordered_numbers"":[6,7,5,8],""order_type"":""shuffled"",""block1_codes"":[""U6"",""P7"",""U5"",""U8""],""block2_codes"":[""P6"",""U7"",""P5"",""P8""]},{""set_index"":3,""original_numbers"":[9,10,11,12],""ordered_numbers"":[9,10,11,12],""order_type"":""canonical"",""block1_codes"":[""P9"",""P10"",""P11"",""U12""],""block2_codes"":[""U9"",""U10"",""U11"",""P12""]},{""set_index"":4,""original_numbers"":[13,14,15,16],""ordered_numbers"":[13,14,15,16],""order_type"":""canonical"",""block1_codes"":[""P13"",""U14"",""U15"",""P16""],""block2_codes"":[""U13"",""P14"",""P15"",""U16""]},{""set_index"":5,""original_numbers"":[17,18,19,20],""ordered_numbers"":[17,18,19,20],""order_type"":""canonical"",""block1_codes"":[""P17"",""U18"",""U19"",""P20""],""block2_codes"":[""U17"",""P18"",""P19"",""U20""]},{""set_index"":6,""original_numbers"":[21,22,23,24],""ordered_numbers"":[21,22,23,24],""order_type"":""canonical"",""block1_codes"":[""U21"",""P22"",""P23"",""P24""],""block2_codes"":[""P21"",""U22"",""U23"",""U24""]},{""set_index"":7,""original_numbers"":[25,26,27,28],""ordered_numbers"":[25,26,27,28],""order_type"":""canonical"",""block1_codes"":[""U25"",""U26"",""P27"",""P28""],""block2_codes"":[""P25"",""P26"",""U27"",""U28""]},{""set_index"":8,""original_numbers"":[29,30,31,32],""ordered_numbers"":[31,32,29,30],""order_type"":""shuffled"",""block1_codes"":[""P31"",""U32"",""P29"",""P30""],""block2_codes"":[""U31"",""P32"",""U29"",""U30""]}]","101","null","null","","[""beach_v2.mp4""]","segmentation_video","","","beach_v2.mp4","[8.682208,18.687693,21.656325,23.695126]","4","","U5","5","1","7","false","",""
"","","","","","survey-multi-choice","31","2.0.0","537309","50","1","2026-04-04 22:20:46","5f3b61326083f69a8b1f8be321b6ee1c","75.132.83.35","Mozilla/5.0 (Macintosh; Intel Mac OS X 10_15_7) AppleWebKit/537.36 (KHTML, like Gecko) Chrome/146.0.0.0 Safari/537.36","Macintosh","Chrome","146.0.0.0","OS X","10_15_7","https://uencdihehs.cognition.run/","en,zh-CN;q=0.9,zh;q=0.8","32","[""P1"",""U2"",""U3"",""P4"",""U6"",""P7"",""U5"",""U8"",""P9"",""P10"",""P11"",""U12"",""P13"",""U14"",""U15"",""P16"",""P17"",""U18"",""U19"",""P20"",""U21"",""P22"",""P23"",""P24"",""U25"",""U26"",""P27"",""P28"",""P31"",""U32"",""P29"",""P30""]","[""U1"",""P2"",""P3"",""U4"",""P6"",""U7"",""P5"",""P8"",""U9"",""U10"",""U11"",""P12"",""U13"",""P14"",""P15"",""U16"",""U17"",""P18"",""P19"",""U20"",""P21"",""U22"",""U23"",""U24"",""P25"",""P26"",""U27"",""U28"",""U31"",""P32"",""U29"",""U30""]","[{""set_index"":1,""original_numbers"":[1,2,3,4],""ordered_numbers"":[1,2,3,4],""order_type"":""canonical"",""block1_codes"":[""P1"",""U2"",""U3"",""P4""],""block2_codes"":[""U1"",""P2"",""P3"",""U4""]},{""set_index"":2,""original_numbers"":[5,6,7,8],""ordered_numbers"":[6,7,5,8],""order_type"":""shuffled"",""block1_codes"":[""U6"",""P7"",""U5"",""U8""],""block2_codes"":[""P6"",""U7"",""P5"",""P8""]},{""set_index"":3,""original_numbers"":[9,10,11,12],""ordered_numbers"":[9,10,11,12],""order_type"":""canonical"",""block1_codes"":[""P9"",""P10"",""P11"",""U12""],""block2_codes"":[""U9"",""U10"",""U11"",""P12""]},{""set_index"":4,""original_numbers"":[13,14,15,16],""ordered_numbers"":[13,14,15,16],""order_type"":""canonical"",""block1_codes"":[""P13"",""U14"",""U15"",""P16""],""block2_codes"":[""U13"",""P14"",""P15"",""U16""]},{""set_index"":5,""original_numbers"":[17,18,19,20],""ordered_numbers"":[17,18,19,20],""order_type"":""canonical"",""block1_codes"":[""P17"",""U18"",""U19"",""P20""],""block2_codes"":[""U17"",""P18"",""P19"",""U20""]},{""set_index"":6,""original_numbers"":[21,22,23,24],""ordered_numbers"":[21,22,23,24],""order_type"":""canonical"",""block1_codes"":[""U21"",""P22"",""P23"",""P24""],""block2_codes"":[""P21"",""U22"",""U23"",""U24""]},{""set_index"":7,""original_numbers"":[25,26,27,28],""ordered_numbers"":[25,26,27,28],""order_type"":""canonical"",""block1_codes"":[""U25"",""U26"",""P27"",""P28""],""block2_codes"":[""P25"",""P26"",""U27"",""U28""]},{""set_index"":8,""original_numbers"":[29,30,31,32],""ordered_numbers"":[31,32,29,30],""order_type"":""shuffled"",""block1_codes"":[""P31"",""U32"",""P29"",""P30""],""block2_codes"":[""U31"",""P32"",""U29"",""U30""]}]","101","1740","{""confidence_rating"":""Moderately confident""}","","","confidence_question","","","","","","","U5","5","1","7","","[0]","Moderately confident"
"","","","","","video-keyboard-response","32","2.0.0","576897","50","1","2026-04-04 22:20:46","5f3b61326083f69a8b1f8be321b6ee1c","75.132.83.35","Mozilla/5.0 (Macintosh; Intel Mac OS X 10_15_7) AppleWebKit/537.36 (KHTML, like Gecko) Chrome/146.0.0.0 Safari/537.36","Macintosh","Chrome","146.0.0.0","OS X","10_15_7","https://uencdihehs.cognition.run/","en,zh-CN;q=0.9,zh;q=0.8","32","[""P1"",""U2"",""U3"",""P4"",""U6"",""P7"",""U5"",""U8"",""P9"",""P10"",""P11"",""U12"",""P13"",""U14"",""U15"",""P16"",""P17"",""U18"",""U19"",""P20"",""U21"",""P22"",""P23"",""P24"",""U25"",""U26"",""P27"",""P28"",""P31"",""U32"",""P29"",""P30""]","[""U1"",""P2"",""P3"",""U4"",""P6"",""U7"",""P5"",""P8"",""U9"",""U10"",""U11"",""P12"",""U13"",""P14"",""P15"",""U16"",""U17"",""P18"",""P19"",""U20"",""P21"",""U22"",""U23"",""U24"",""P25"",""P26"",""U27"",""U28"",""U31"",""P32"",""U29"",""U30""]","[{""set_index"":1,""original_numbers"":[1,2,3,4],""ordered_numbers"":[1,2,3,4],""order_type"":""canonical"",""block1_codes"":[""P1"",""U2"",""U3"",""P4""],""block2_codes"":[""U1"",""P2"",""P3"",""U4""]},{""set_index"":2,""original_numbers"":[5,6,7,8],""ordered_numbers"":[6,7,5,8],""order_type"":""shuffled"",""block1_codes"":[""U6"",""P7"",""U5"",""U8""],""block2_codes"":[""P6"",""U7"",""P5"",""P8""]},{""set_index"":3,""original_numbers"":[9,10,11,12],""ordered_numbers"":[9,10,11,12],""order_type"":""canonical"",""block1_codes"":[""P9"",""P10"",""P11"",""U12""],""block2_codes"":[""U9"",""U10"",""U11"",""P12""]},{""set_index"":4,""original_numbers"":[13,14,15,16],""ordered_numbers"":[13,14,15,16],""order_type"":""canonical"",""block1_codes"":[""P13"",""U14"",""U15"",""P16""],""block2_codes"":[""U13"",""P14"",""P15"",""U16""]},{""set_index"":5,""original_numbers"":[17,18,19,20],""ordered_numbers"":[17,18,19,20],""order_type"":""canonical"",""block1_codes"":[""P17"",""U18"",""U19"",""P20""],""block2_codes"":[""U17"",""P18"",""P19"",""U20""]},{""set_index"":6,""original_numbers"":[21,22,23,24],""ordered_numbers"":[21,22,23,24],""order_type"":""canonical"",""block1_codes"":[""U21"",""P22"",""P23"",""P24""],""block2_codes"":[""P21"",""U22"",""U23"",""U24""]},{""set_index"":7,""original_numbers"":[25,26,27,28],""ordered_numbers"":[25,26,27,28],""order_type"":""canonical"",""block1_codes"":[""U25"",""U26"",""P27"",""P28""],""block2_codes"":[""P25"",""P26"",""U27"",""U28""]},{""set_index"":8,""original_numbers"":[29,30,31,32],""ordered_numbers"":[31,32,29,30],""order_type"":""shuffled"",""block1_codes"":[""P31"",""U32"",""P29"",""P30""],""block2_codes"":[""U31"",""P32"",""U29"",""U30""]}]","101","null","null","","[""car_v2.mp4""]","segmentation_video","","","car_v2.mp4","[8.303228,10.913787,15.252158,21.19354,27.458364,31.189841,37.776589]","7","","U8","8","1","8","false","",""
"","","","","","survey-multi-choice","33","2.0.0","579775","50","1","2026-04-04 22:20:46","5f3b61326083f69a8b1f8be321b6ee1c","75.132.83.35","Mozilla/5.0 (Macintosh; Intel Mac OS X 10_15_7) AppleWebKit/537.36 (KHTML, like Gecko) Chrome/146.0.0.0 Safari/537.36","Macintosh","Chrome","146.0.0.0","OS X","10_15_7","https://uencdihehs.cognition.run/","en,zh-CN;q=0.9,zh;q=0.8","32","[""P1"",""U2"",""U3"",""P4"",""U6"",""P7"",""U5"",""U8"",""P9"",""P10"",""P11"",""U12"",""P13"",""U14"",""U15"",""P16"",""P17"",""U18"",""U19"",""P20"",""U21"",""P22"",""P23"",""P24"",""U25"",""U26"",""P27"",""P28"",""P31"",""U32"",""P29"",""P30""]","[""U1"",""P2"",""P3"",""U4"",""P6"",""U7"",""P5"",""P8"",""U9"",""U10"",""U11"",""P12"",""U13"",""P14"",""P15"",""U16"",""U17"",""P18"",""P19"",""U20"",""P21"",""U22"",""U23"",""U24"",""P25"",""P26"",""U27"",""U28"",""U31"",""P32"",""U29"",""U30""]","[{""set_index"":1,""original_numbers"":[1,2,3,4],""ordered_numbers"":[1,2,3,4],""order_type"":""canonical"",""block1_codes"":[""P1"",""U2"",""U3"",""P4""],""block2_codes"":[""U1"",""P2"",""P3"",""U4""]},{""set_index"":2,""original_numbers"":[5,6,7,8],""ordered_numbers"":[6,7,5,8],""order_type"":""shuffled"",""block1_codes"":[""U6"",""P7"",""U5"",""U8""],""block2_codes"":[""P6"",""U7"",""P5"",""P8""]},{""set_index"":3,""original_numbers"":[9,10,11,12],""ordered_numbers"":[9,10,11,12],""order_type"":""canonical"",""block1_codes"":[""P9"",""P10"",""P11"",""U12""],""block2_codes"":[""U9"",""U10"",""U11"",""P12""]},{""set_index"":4,""original_numbers"":[13,14,15,16],""ordered_numbers"":[13,14,15,16],""order_type"":""canonical"",""block1_codes"":[""P13"",""U14"",""U15"",""P16""],""block2_codes"":[""U13"",""P14"",""P15"",""U16""]},{""set_index"":5,""original_numbers"":[17,18,19,20],""ordered_numbers"":[17,18,19,20],""order_type"":""canonical"",""block1_codes"":[""P17"",""U18"",""U19"",""P20""],""block2_codes"":[""U17"",""P18"",""P19"",""U20""]},{""set_index"":6,""original_numbers"":[21,22,23,24],""ordered_numbers"":[21,22,23,24],""order_type"":""canonical"",""block1_codes"":[""U21"",""P22"",""P23"",""P24""],""block2_codes"":[""P21"",""U22"",""U23"",""U24""]},{""set_index"":7,""original_numbers"":[25,26,27,28],""ordered_numbers"":[25,26,27,28],""order_type"":""canonical"",""block1_codes"":[""U25"",""U26"",""P27"",""P28""],""block2_codes"":[""P25"",""P26"",""U27"",""U28""]},{""set_index"":8,""original_numbers"":[29,30,31,32],""ordered_numbers"":[31,32,29,30],""order_type"":""shuffled"",""block1_codes"":[""P31"",""U32"",""P29"",""P30""],""block2_codes"":[""U31"",""P32"",""U29"",""U30""]}]","101","2874","{""confidence_rating"":""Neutral""}","","","confidence_question","","","","","","","U8","8","1","8","","[0]","Neutral"
"","","","","","video-keyboard-response","34","2.0.0","617604","50","1","2026-04-04 22:20:46","5f3b61326083f69a8b1f8be321b6ee1c","75.132.83.35","Mozilla/5.0 (Macintosh; Intel Mac OS X 10_15_7) AppleWebKit/537.36 (KHTML, like Gecko) Chrome/146.0.0.0 Safari/537.36","Macintosh","Chrome","146.0.0.0","OS X","10_15_7","https://uencdihehs.cognition.run/","en,zh-CN;q=0.9,zh;q=0.8","32","[""P1"",""U2"",""U3"",""P4"",""U6"",""P7"",""U5"",""U8"",""P9"",""P10"",""P11"",""U12"",""P13"",""U14"",""U15"",""P16"",""P17"",""U18"",""U19"",""P20"",""U21"",""P22"",""P23"",""P24"",""U25"",""U26"",""P27"",""P28"",""P31"",""U32"",""P29"",""P30""]","[""U1"",""P2"",""P3"",""U4"",""P6"",""U7"",""P5"",""P8"",""U9"",""U10"",""U11"",""P12"",""U13"",""P14"",""P15"",""U16"",""U17"",""P18"",""P19"",""U20"",""P21"",""U22"",""U23"",""U24"",""P25"",""P26"",""U27"",""U28"",""U31"",""P32"",""U29"",""U30""]","[{""set_index"":1,""original_numbers"":[1,2,3,4],""ordered_numbers"":[1,2,3,4],""order_type"":""canonical"",""block1_codes"":[""P1"",""U2"",""U3"",""P4""],""block2_codes"":[""U1"",""P2"",""P3"",""U4""]},{""set_index"":2,""original_numbers"":[5,6,7,8],""ordered_numbers"":[6,7,5,8],""order_type"":""shuffled"",""block1_codes"":[""U6"",""P7"",""U5"",""U8""],""block2_codes"":[""P6"",""U7"",""P5"",""P8""]},{""set_index"":3,""original_numbers"":[9,10,11,12],""ordered_numbers"":[9,10,11,12],""order_type"":""canonical"",""block1_codes"":[""P9"",""P10"",""P11"",""U12""],""block2_codes"":[""U9"",""U10"",""U11"",""P12""]},{""set_index"":4,""original_numbers"":[13,14,15,16],""ordered_numbers"":[13,14,15,16],""order_type"":""canonical"",""block1_codes"":[""P13"",""U14"",""U15"",""P16""],""block2_codes"":[""U13"",""P14"",""P15"",""U16""]},{""set_index"":5,""original_numbers"":[17,18,19,20],""ordered_numbers"":[17,18,19,20],""order_type"":""canonical"",""block1_codes"":[""P17"",""U18"",""U19"",""P20""],""block2_codes"":[""U17"",""P18"",""P19"",""U20""]},{""set_index"":6,""original_numbers"":[21,22,23,24],""ordered_numbers"":[21,22,23,24],""order_type"":""canonical"",""block1_codes"":[""U21"",""P22"",""P23"",""P24""],""block2_codes"":[""P21"",""U22"",""U23"",""U24""]},{""set_index"":7,""original_numbers"":[25,26,27,28],""ordered_numbers"":[25,26,27,28],""order_type"":""canonical"",""block1_codes"":[""U25"",""U26"",""P27"",""P28""],""block2_codes"":[""P25"",""P26"",""U27"",""U28""]},{""set_index"":8,""original_numbers"":[29,30,31,32],""ordered_numbers"":[31,32,29,30],""order_type"":""shuffled"",""block1_codes"":[""P31"",""U32"",""P29"",""P30""],""block2_codes"":[""U31"",""P32"",""U29"",""U30""]}]","101","null","null","","[""cereal_v1.mp4""]","segmentation_video","","","cereal_v1.mp4","[2.100522,14.030889,21.525115,28.969461,33.080073]","5","","P9","9","1","9","false","",""
