"success","timeout","failed_images","failed_audio","failed_video","trial_type","trial_index","plugin_version","time_elapsed","run_id","condition","recorded_at","source_code_version","ip","user_agent","device","browser","browser_version","platform","platform_version","referer","accept_language","pair_count","block1_codes","block2_codes","counterbalance_sets","participant_id","rt","response","view_history","stimulus","trial_kind","demo_index","demo_code","stimulus_file","boundary_times_sec","boundary_count","value","video_code","pair_number","block","global_position_in_block","skipped_video_debug","question_order","confidence_rating"
"true","false","[]","[]","[]","preload","0","2.0.0","147219","47","1","2026-04-03 16:21:31","1ae03887455d64a255e840e66d192191","149.248.12.250","Mozilla/5.0 (Windows NT 10.0; Win64; x64) AppleWebKit/537.36 (KHTML, like Gecko) Chrome/146.0.0.0 Safari/537.36","WebKit","Chrome","146.0.0.0","Windows","10.0","https://uencdihehs.cognition.run/","zh-CN,zh;q=0.9","32","[""U1"",""U2"",""U3"",""P4"",""P6"",""P5"",""P7"",""U8"",""P9"",""P10"",""U11"",""U12"",""P13"",""U14"",""U15"",""U16"",""U17"",""P18"",""P19"",""U20"",""P23"",""P21"",""P24"",""U22"",""P25"",""P26"",""P27"",""U28"",""P29"",""U30"",""P31"",""U32""]","[""P1"",""P2"",""P3"",""U4"",""U6"",""U5"",""U7"",""P8"",""U9"",""U10"",""P11"",""P12"",""U13"",""P14"",""P15"",""P16"",""P17"",""U18"",""U19"",""P20"",""U23"",""U21"",""U24"",""P22"",""U25"",""U26"",""U27"",""P28"",""U29"",""P30"",""U31"",""P32""]","[{""set_index"":1,""original_numbers"":[1,2,3,4],""ordered_numbers"":[1,2,3,4],""order_type"":""canonical"",""block1_codes"":[""U1"",""U2"",""U3"",""P4""],""block2_codes"":[""P1"",""P2"",""P3"",""U4""]},{""set_index"":2,""original_numbers"":[5,6,7,8],""ordered_numbers"":[6,5,7,8],""order_type"":""shuffled"",""block1_codes"":[""P6"",""P5"",""P7"",""U8""],""block2_codes"":[""U6"",""U5"",""U7"",""P8""]},{""set_index"":3,""original_numbers"":[9,10,11,12],""ordered_numbers"":[9,10,11,12],""order_type"":""canonical"",""block1_codes"":[""P9"",""P10"",""U11"",""U12""],""block2_codes"":[""U9"",""U10"",""P11"",""P12""]},{""set_index"":4,""original_numbers"":[13,14,15,16],""ordered_numbers"":[13,14,15,16],""order_type"":""canonical"",""block1_codes"":[""P13"",""U14"",""U15"",""U16""],""block2_codes"":[""U13"",""P14"",""P15"",""P16""]},{""set_index"":5,""original_numbers"":[17,18,19,20],""ordered_numbers"":[17,18,19,20],""order_type"":""canonical"",""block1_codes"":[""U17"",""P18"",""P19"",""U20""],""block2_codes"":[""P17"",""U18"",""U19"",""P20""]},{""set_index"":6,""original_numbers"":[21,22,23,24],""ordered_numbers"":[23,21,24,22],""order_type"":""shuffled"",""block1_codes"":[""P23"",""P21"",""P24"",""U22""],""block2_codes"":[""U23"",""U21"",""U24"",""P22""]},{""set_index"":7,""original_numbers"":[25,26,27,28],""ordered_numbers"":[25,26,27,28],""order_type"":""canonical"",""block1_codes"":[""P25"",""P26"",""P27"",""U28""],""block2_codes"":[""U25"",""U26"",""U27"",""P28""]},{""set_index"":8,""original_numbers"":[29,30,31,32],""ordered_numbers"":[29,30,31,32],""order_type"":""canonical"",""block1_codes"":[""P29"",""U30"",""P31"",""U32""],""block2_codes"":[""U29"",""P30"",""U31"",""P32""]}]","6001","","","","","","","","","","","","","","","","","",""
"","","","","","survey-text","1","2.0.0","176108","47","1","2026-04-03 16:21:31","1ae03887455d64a255e840e66d192191","149.248.12.250","Mozilla/5.0 (Windows NT 10.0; Win64; x64) AppleWebKit/537.36 (KHTML, like Gecko) Chrome/146.0.0.0 Safari/537.36","WebKit","Chrome","146.0.0.0","Windows","10.0","https://uencdihehs.cognition.run/","zh-CN,zh;q=0.9","32","[""U1"",""U2"",""U3"",""P4"",""P6"",""P5"",""P7"",""U8"",""P9"",""P10"",""U11"",""U12"",""P13"",""U14"",""U15"",""U16"",""U17"",""P18"",""P19"",""U20"",""P23"",""P21"",""P24"",""U22"",""P25"",""P26"",""P27"",""U28"",""P29"",""U30"",""P31"",""U32""]","[""P1"",""P2"",""P3"",""U4"",""U6"",""U5"",""U7"",""P8"",""U9"",""U10"",""P11"",""P12"",""U13"",""P14"",""P15"",""P16"",""P17"",""U18"",""U19"",""P20"",""U23"",""U21"",""U24"",""P22"",""U25"",""U26"",""U27"",""P28"",""U29"",""P30"",""U31"",""P32""]","[{""set_index"":1,""original_numbers"":[1,2,3,4],""ordered_numbers"":[1,2,3,4],""order_type"":""canonical"",""block1_codes"":[""U1"",""U2"",""U3"",""P4""],""block2_codes"":[""P1"",""P2"",""P3"",""U4""]},{""set_index"":2,""original_numbers"":[5,6,7,8],""ordered_numbers"":[6,5,7,8],""order_type"":""shuffled"",""block1_codes"":[""P6"",""P5"",""P7"",""U8""],""block2_codes"":[""U6"",""U5"",""U7"",""P8""]},{""set_index"":3,""original_numbers"":[9,10,11,12],""ordered_numbers"":[9,10,11,12],""order_type"":""canonical"",""block1_codes"":[""P9"",""P10"",""U11"",""U12""],""block2_codes"":[""U9"",""U10"",""P11"",""P12""]},{""set_index"":4,""original_numbers"":[13,14,15,16],""ordered_numbers"":[13,14,15,16],""order_type"":""canonical"",""block1_codes"":[""P13"",""U14"",""U15"",""U16""],""block2_codes"":[""U13"",""P14"",""P15"",""P16""]},{""set_index"":5,""original_numbers"":[17,18,19,20],""ordered_numbers"":[17,18,19,20],""order_type"":""canonical"",""block1_codes"":[""U17"",""P18"",""P19"",""U20""],""block2_codes"":[""P17"",""U18"",""U19"",""P20""]},{""set_index"":6,""original_numbers"":[21,22,23,24],""ordered_numbers"":[23,21,24,22],""order_type"":""shuffled"",""block1_codes"":[""P23"",""P21"",""P24"",""U22""],""block2_codes"":[""U23"",""U21"",""U24"",""P22""]},{""set_index"":7,""original_numbers"":[25,26,27,28],""ordered_numbers"":[25,26,27,28],""order_type"":""canonical"",""block1_codes"":[""P25"",""P26"",""P27"",""U28""],""block2_codes"":[""U25"",""U26"",""U27"",""P28""]},{""set_index"":8,""original_numbers"":[29,30,31,32],""ordered_numbers"":[29,30,31,32],""order_type"":""canonical"",""block1_codes"":[""P29"",""U30"",""P31"",""U32""],""block2_codes"":[""U29"",""P30"",""U31"",""P32""]}]","6001","28884","{""Q0"":""6001""}","","","","","","","","","","","","","","","",""
"true","","","","","fullscreen","2","2.0.0","181599","47","1","2026-04-03 16:21:31","1ae03887455d64a255e840e66d192191","149.248.12.250","Mozilla/5.0 (Windows NT 10.0; Win64; x64) AppleWebKit/537.36 (KHTML, like Gecko) Chrome/146.0.0.0 Safari/537.36","WebKit","Chrome","146.0.0.0","Windows","10.0","https://uencdihehs.cognition.run/","zh-CN,zh;q=0.9","32","[""U1"",""U2"",""U3"",""P4"",""P6"",""P5"",""P7"",""U8"",""P9"",""P10"",""U11"",""U12"",""P13"",""U14"",""U15"",""U16"",""U17"",""P18"",""P19"",""U20"",""P23"",""P21"",""P24"",""U22"",""P25"",""P26"",""P27"",""U28"",""P29"",""U30"",""P31"",""U32""]","[""P1"",""P2"",""P3"",""U4"",""U6"",""U5"",""U7"",""P8"",""U9"",""U10"",""P11"",""P12"",""U13"",""P14"",""P15"",""P16"",""P17"",""U18"",""U19"",""P20"",""U23"",""U21"",""U24"",""P22"",""U25"",""U26"",""U27"",""P28"",""U29"",""P30"",""U31"",""P32""]","[{""set_index"":1,""original_numbers"":[1,2,3,4],""ordered_numbers"":[1,2,3,4],""order_type"":""canonical"",""block1_codes"":[""U1"",""U2"",""U3"",""P4""],""block2_codes"":[""P1"",""P2"",""P3"",""U4""]},{""set_index"":2,""original_numbers"":[5,6,7,8],""ordered_numbers"":[6,5,7,8],""order_type"":""shuffled"",""block1_codes"":[""P6"",""P5"",""P7"",""U8""],""block2_codes"":[""U6"",""U5"",""U7"",""P8""]},{""set_index"":3,""original_numbers"":[9,10,11,12],""ordered_numbers"":[9,10,11,12],""order_type"":""canonical"",""block1_codes"":[""P9"",""P10"",""U11"",""U12""],""block2_codes"":[""U9"",""U10"",""P11"",""P12""]},{""set_index"":4,""original_numbers"":[13,14,15,16],""ordered_numbers"":[13,14,15,16],""order_type"":""canonical"",""block1_codes"":[""P13"",""U14"",""U15"",""U16""],""block2_codes"":[""U13"",""P14"",""P15"",""P16""]},{""set_index"":5,""original_numbers"":[17,18,19,20],""ordered_numbers"":[17,18,19,20],""order_type"":""canonical"",""block1_codes"":[""U17"",""P18"",""P19"",""U20""],""block2_codes"":[""P17"",""U18"",""U19"",""P20""]},{""set_index"":6,""original_numbers"":[21,22,23,24],""ordered_numbers"":[23,21,24,22],""order_type"":""shuffled"",""block1_codes"":[""P23"",""P21"",""P24"",""U22""],""block2_codes"":[""U23"",""U21"",""U24"",""P22""]},{""set_index"":7,""original_numbers"":[25,26,27,28],""ordered_numbers"":[25,26,27,28],""order_type"":""canonical"",""block1_codes"":[""P25"",""P26"",""P27"",""U28""],""block2_codes"":[""U25"",""U26"",""U27"",""P28""]},{""set_index"":8,""original_numbers"":[29,30,31,32],""ordered_numbers"":[29,30,31,32],""order_type"":""canonical"",""block1_codes"":[""P29"",""U30"",""P31"",""U32""],""block2_codes"":[""U29"",""P30"",""U31"",""P32""]}]","6001","4487","","","","","","","","","","","","","","","","",""
"","","","","","instructions","3","2.0.0","254272","47","1","2026-04-03 16:21:31","1ae03887455d64a255e840e66d192191","149.248.12.250","Mozilla/5.0 (Windows NT 10.0; Win64; x64) AppleWebKit/537.36 (KHTML, like Gecko) Chrome/146.0.0.0 Safari/537.36","WebKit","Chrome","146.0.0.0","Windows","10.0","https://uencdihehs.cognition.run/","zh-CN,zh;q=0.9","32","[""U1"",""U2"",""U3"",""P4"",""P6"",""P5"",""P7"",""U8"",""P9"",""P10"",""U11"",""U12"",""P13"",""U14"",""U15"",""U16"",""U17"",""P18"",""P19"",""U20"",""P23"",""P21"",""P24"",""U22"",""P25"",""P26"",""P27"",""U28"",""P29"",""U30"",""P31"",""U32""]","[""P1"",""P2"",""P3"",""U4"",""U6"",""U5"",""U7"",""P8"",""U9"",""U10"",""P11"",""P12"",""U13"",""P14"",""P15"",""P16"",""P17"",""U18"",""U19"",""P20"",""U23"",""U21"",""U24"",""P22"",""U25"",""U26"",""U27"",""P28"",""U29"",""P30"",""U31"",""P32""]","[{""set_index"":1,""original_numbers"":[1,2,3,4],""ordered_numbers"":[1,2,3,4],""order_type"":""canonical"",""block1_codes"":[""U1"",""U2"",""U3"",""P4""],""block2_codes"":[""P1"",""P2"",""P3"",""U4""]},{""set_index"":2,""original_numbers"":[5,6,7,8],""ordered_numbers"":[6,5,7,8],""order_type"":""shuffled"",""block1_codes"":[""P6"",""P5"",""P7"",""U8""],""block2_codes"":[""U6"",""U5"",""U7"",""P8""]},{""set_index"":3,""original_numbers"":[9,10,11,12],""ordered_numbers"":[9,10,11,12],""order_type"":""canonical"",""block1_codes"":[""P9"",""P10"",""U11"",""U12""],""block2_codes"":[""U9"",""U10"",""P11"",""P12""]},{""set_index"":4,""original_numbers"":[13,14,15,16],""ordered_numbers"":[13,14,15,16],""order_type"":""canonical"",""block1_codes"":[""P13"",""U14"",""U15"",""U16""],""block2_codes"":[""U13"",""P14"",""P15"",""P16""]},{""set_index"":5,""original_numbers"":[17,18,19,20],""ordered_numbers"":[17,18,19,20],""order_type"":""canonical"",""block1_codes"":[""U17"",""P18"",""P19"",""U20""],""block2_codes"":[""P17"",""U18"",""U19"",""P20""]},{""set_index"":6,""original_numbers"":[21,22,23,24],""ordered_numbers"":[23,21,24,22],""order_type"":""shuffled"",""block1_codes"":[""P23"",""P21"",""P24"",""U22""],""block2_codes"":[""U23"",""U21"",""U24"",""P22""]},{""set_index"":7,""original_numbers"":[25,26,27,28],""ordered_numbers"":[25,26,27,28],""order_type"":""canonical"",""block1_codes"":[""P25"",""P26"",""P27"",""U28""],""block2_codes"":[""U25"",""U26"",""U27"",""P28""]},{""set_index"":8,""original_numbers"":[29,30,31,32],""ordered_numbers"":[29,30,31,32],""order_type"":""canonical"",""block1_codes"":[""P29"",""U30"",""P31"",""U32""],""block2_codes"":[""U29"",""P30"",""U31"",""P32""]}]","6001","72669","","[{""page_index"":0,""viewing_time"":14509},{""page_index"":1,""viewing_time"":31712},{""page_index"":2,""viewing_time"":26448}]","","","","","","","","","","","","","","",""
"","","","","","html-button-response","4","2.0.0","283870","47","1","2026-04-03 16:21:31","1ae03887455d64a255e840e66d192191","149.248.12.250","Mozilla/5.0 (Windows NT 10.0; Win64; x64) AppleWebKit/537.36 (KHTML, like Gecko) Chrome/146.0.0.0 Safari/537.36","WebKit","Chrome","146.0.0.0","Windows","10.0","https://uencdihehs.cognition.run/","zh-CN,zh;q=0.9","32","[""U1"",""U2"",""U3"",""P4"",""P6"",""P5"",""P7"",""U8"",""P9"",""P10"",""U11"",""U12"",""P13"",""U14"",""U15"",""U16"",""U17"",""P18"",""P19"",""U20"",""P23"",""P21"",""P24"",""U22"",""P25"",""P26"",""P27"",""U28"",""P29"",""U30"",""P31"",""U32""]","[""P1"",""P2"",""P3"",""U4"",""U6"",""U5"",""U7"",""P8"",""U9"",""U10"",""P11"",""P12"",""U13"",""P14"",""P15"",""P16"",""P17"",""U18"",""U19"",""P20"",""U23"",""U21"",""U24"",""P22"",""U25"",""U26"",""U27"",""P28"",""U29"",""P30"",""U31"",""P32""]","[{""set_index"":1,""original_numbers"":[1,2,3,4],""ordered_numbers"":[1,2,3,4],""order_type"":""canonical"",""block1_codes"":[""U1"",""U2"",""U3"",""P4""],""block2_codes"":[""P1"",""P2"",""P3"",""U4""]},{""set_index"":2,""original_numbers"":[5,6,7,8],""ordered_numbers"":[6,5,7,8],""order_type"":""shuffled"",""block1_codes"":[""P6"",""P5"",""P7"",""U8""],""block2_codes"":[""U6"",""U5"",""U7"",""P8""]},{""set_index"":3,""original_numbers"":[9,10,11,12],""ordered_numbers"":[9,10,11,12],""order_type"":""canonical"",""block1_codes"":[""P9"",""P10"",""U11"",""U12""],""block2_codes"":[""U9"",""U10"",""P11"",""P12""]},{""set_index"":4,""original_numbers"":[13,14,15,16],""ordered_numbers"":[13,14,15,16],""order_type"":""canonical"",""block1_codes"":[""P13"",""U14"",""U15"",""U16""],""block2_codes"":[""U13"",""P14"",""P15"",""P16""]},{""set_index"":5,""original_numbers"":[17,18,19,20],""ordered_numbers"":[17,18,19,20],""order_type"":""canonical"",""block1_codes"":[""U17"",""P18"",""P19"",""U20""],""block2_codes"":[""P17"",""U18"",""U19"",""P20""]},{""set_index"":6,""original_numbers"":[21,22,23,24],""ordered_numbers"":[23,21,24,22],""order_type"":""shuffled"",""block1_codes"":[""P23"",""P21"",""P24"",""U22""],""block2_codes"":[""U23"",""U21"",""U24"",""P22""]},{""set_index"":7,""original_numbers"":[25,26,27,28],""ordered_numbers"":[25,26,27,28],""order_type"":""canonical"",""block1_codes"":[""P25"",""P26"",""P27"",""U28""],""block2_codes"":[""U25"",""U26"",""U27"",""P28""]},{""set_index"":8,""original_numbers"":[29,30,31,32],""ordered_numbers"":[29,30,31,32],""order_type"":""canonical"",""block1_codes"":[""P29"",""U30"",""P31"",""U32""],""block2_codes"":[""U29"",""P30"",""U31"",""P32""]}]","6001","29594","0","","Here is a demo trial! Like what you will do in the main experiment, <br><br> you will watch a movie clip and at the same time marking off the activity in these movies into the <strong>SMALLEST</strong> units that seem natural and meaningful to you.<br><br>Remember, tap the <strong>SPACE BAR</strong> to mark off a boundary between two <strong>SMALL</strong> units of activity.<br><br>A green bar will appear at the bottom of the screen when you press the button.<br><br>","","","","","","","","","","","","","",""
"","","","","","video-keyboard-response","5","2.0.0","319483","47","1","2026-04-03 16:21:31","1ae03887455d64a255e840e66d192191","149.248.12.250","Mozilla/5.0 (Windows NT 10.0; Win64; x64) AppleWebKit/537.36 (KHTML, like Gecko) Chrome/146.0.0.0 Safari/537.36","WebKit","Chrome","146.0.0.0","Windows","10.0","https://uencdihehs.cognition.run/","zh-CN,zh;q=0.9","32","[""U1"",""U2"",""U3"",""P4"",""P6"",""P5"",""P7"",""U8"",""P9"",""P10"",""U11"",""U12"",""P13"",""U14"",""U15"",""U16"",""U17"",""P18"",""P19"",""U20"",""P23"",""P21"",""P24"",""U22"",""P25"",""P26"",""P27"",""U28"",""P29"",""U30"",""P31"",""U32""]","[""P1"",""P2"",""P3"",""U4"",""U6"",""U5"",""U7"",""P8"",""U9"",""U10"",""P11"",""P12"",""U13"",""P14"",""P15"",""P16"",""P17"",""U18"",""U19"",""P20"",""U23"",""U21"",""U24"",""P22"",""U25"",""U26"",""U27"",""P28"",""U29"",""P30"",""U31"",""P32""]","[{""set_index"":1,""original_numbers"":[1,2,3,4],""ordered_numbers"":[1,2,3,4],""order_type"":""canonical"",""block1_codes"":[""U1"",""U2"",""U3"",""P4""],""block2_codes"":[""P1"",""P2"",""P3"",""U4""]},{""set_index"":2,""original_numbers"":[5,6,7,8],""ordered_numbers"":[6,5,7,8],""order_type"":""shuffled"",""block1_codes"":[""P6"",""P5"",""P7"",""U8""],""block2_codes"":[""U6"",""U5"",""U7"",""P8""]},{""set_index"":3,""original_numbers"":[9,10,11,12],""ordered_numbers"":[9,10,11,12],""order_type"":""canonical"",""block1_codes"":[""P9"",""P10"",""U11"",""U12""],""block2_codes"":[""U9"",""U10"",""P11"",""P12""]},{""set_index"":4,""original_numbers"":[13,14,15,16],""ordered_numbers"":[13,14,15,16],""order_type"":""canonical"",""block1_codes"":[""P13"",""U14"",""U15"",""U16""],""block2_codes"":[""U13"",""P14"",""P15"",""P16""]},{""set_index"":5,""original_numbers"":[17,18,19,20],""ordered_numbers"":[17,18,19,20],""order_type"":""canonical"",""block1_codes"":[""U17"",""P18"",""P19"",""U20""],""block2_codes"":[""P17"",""U18"",""U19"",""P20""]},{""set_index"":6,""original_numbers"":[21,22,23,24],""ordered_numbers"":[23,21,24,22],""order_type"":""shuffled"",""block1_codes"":[""P23"",""P21"",""P24"",""U22""],""block2_codes"":[""U23"",""U21"",""U24"",""P22""]},{""set_index"":7,""original_numbers"":[25,26,27,28],""ordered_numbers"":[25,26,27,28],""order_type"":""canonical"",""block1_codes"":[""P25"",""P26"",""P27"",""U28""],""block2_codes"":[""U25"",""U26"",""U27"",""P28""]},{""set_index"":8,""original_numbers"":[29,30,31,32],""ordered_numbers"":[29,30,31,32],""order_type"":""canonical"",""block1_codes"":[""P29"",""U30"",""P31"",""U32""],""block2_codes"":[""U29"",""P30"",""U31"",""P32""]}]","6001","null","null","","[""garden_v1.mp4""]","demo_video","1","demo1","garden_v1.mp4","[7.816865,17.204344,20.455198]","3","","","","","","","",""
"","","","","","call-function","6","2.0.0","319484","47","1","2026-04-03 16:21:31","1ae03887455d64a255e840e66d192191","149.248.12.250","Mozilla/5.0 (Windows NT 10.0; Win64; x64) AppleWebKit/537.36 (KHTML, like Gecko) Chrome/146.0.0.0 Safari/537.36","WebKit","Chrome","146.0.0.0","Windows","10.0","https://uencdihehs.cognition.run/","zh-CN,zh;q=0.9","32","[""U1"",""U2"",""U3"",""P4"",""P6"",""P5"",""P7"",""U8"",""P9"",""P10"",""U11"",""U12"",""P13"",""U14"",""U15"",""U16"",""U17"",""P18"",""P19"",""U20"",""P23"",""P21"",""P24"",""U22"",""P25"",""P26"",""P27"",""U28"",""P29"",""U30"",""P31"",""U32""]","[""P1"",""P2"",""P3"",""U4"",""U6"",""U5"",""U7"",""P8"",""U9"",""U10"",""P11"",""P12"",""U13"",""P14"",""P15"",""P16"",""P17"",""U18"",""U19"",""P20"",""U23"",""U21"",""U24"",""P22"",""U25"",""U26"",""U27"",""P28"",""U29"",""P30"",""U31"",""P32""]","[{""set_index"":1,""original_numbers"":[1,2,3,4],""ordered_numbers"":[1,2,3,4],""order_type"":""canonical"",""block1_codes"":[""U1"",""U2"",""U3"",""P4""],""block2_codes"":[""P1"",""P2"",""P3"",""U4""]},{""set_index"":2,""original_numbers"":[5,6,7,8],""ordered_numbers"":[6,5,7,8],""order_type"":""shuffled"",""block1_codes"":[""P6"",""P5"",""P7"",""U8""],""block2_codes"":[""U6"",""U5"",""U7"",""P8""]},{""set_index"":3,""original_numbers"":[9,10,11,12],""ordered_numbers"":[9,10,11,12],""order_type"":""canonical"",""block1_codes"":[""P9"",""P10"",""U11"",""U12""],""block2_codes"":[""U9"",""U10"",""P11"",""P12""]},{""set_index"":4,""original_numbers"":[13,14,15,16],""ordered_numbers"":[13,14,15,16],""order_type"":""canonical"",""block1_codes"":[""P13"",""U14"",""U15"",""U16""],""block2_codes"":[""U13"",""P14"",""P15"",""P16""]},{""set_index"":5,""original_numbers"":[17,18,19,20],""ordered_numbers"":[17,18,19,20],""order_type"":""canonical"",""block1_codes"":[""U17"",""P18"",""P19"",""U20""],""block2_codes"":[""P17"",""U18"",""U19"",""P20""]},{""set_index"":6,""original_numbers"":[21,22,23,24],""ordered_numbers"":[23,21,24,22],""order_type"":""shuffled"",""block1_codes"":[""P23"",""P21"",""P24"",""U22""],""block2_codes"":[""U23"",""U21"",""U24"",""P22""]},{""set_index"":7,""original_numbers"":[25,26,27,28],""ordered_numbers"":[25,26,27,28],""order_type"":""canonical"",""block1_codes"":[""P25"",""P26"",""P27"",""U28""],""block2_codes"":[""U25"",""U26"",""U27"",""P28""]},{""set_index"":8,""original_numbers"":[29,30,31,32],""ordered_numbers"":[29,30,31,32],""order_type"":""canonical"",""block1_codes"":[""P29"",""U30"",""P31"",""U32""],""block2_codes"":[""U29"",""P30"",""U31"",""P32""]}]","6001","","","","","","","","","","","","","","","","","",""
"","","","","","html-button-response","7","2.0.0","328525","47","1","2026-04-03 16:21:31","1ae03887455d64a255e840e66d192191","149.248.12.250","Mozilla/5.0 (Windows NT 10.0; Win64; x64) AppleWebKit/537.36 (KHTML, like Gecko) Chrome/146.0.0.0 Safari/537.36","WebKit","Chrome","146.0.0.0","Windows","10.0","https://uencdihehs.cognition.run/","zh-CN,zh;q=0.9","32","[""U1"",""U2"",""U3"",""P4"",""P6"",""P5"",""P7"",""U8"",""P9"",""P10"",""U11"",""U12"",""P13"",""U14"",""U15"",""U16"",""U17"",""P18"",""P19"",""U20"",""P23"",""P21"",""P24"",""U22"",""P25"",""P26"",""P27"",""U28"",""P29"",""U30"",""P31"",""U32""]","[""P1"",""P2"",""P3"",""U4"",""U6"",""U5"",""U7"",""P8"",""U9"",""U10"",""P11"",""P12"",""U13"",""P14"",""P15"",""P16"",""P17"",""U18"",""U19"",""P20"",""U23"",""U21"",""U24"",""P22"",""U25"",""U26"",""U27"",""P28"",""U29"",""P30"",""U31"",""P32""]","[{""set_index"":1,""original_numbers"":[1,2,3,4],""ordered_numbers"":[1,2,3,4],""order_type"":""canonical"",""block1_codes"":[""U1"",""U2"",""U3"",""P4""],""block2_codes"":[""P1"",""P2"",""P3"",""U4""]},{""set_index"":2,""original_numbers"":[5,6,7,8],""ordered_numbers"":[6,5,7,8],""order_type"":""shuffled"",""block1_codes"":[""P6"",""P5"",""P7"",""U8""],""block2_codes"":[""U6"",""U5"",""U7"",""P8""]},{""set_index"":3,""original_numbers"":[9,10,11,12],""ordered_numbers"":[9,10,11,12],""order_type"":""canonical"",""block1_codes"":[""P9"",""P10"",""U11"",""U12""],""block2_codes"":[""U9"",""U10"",""P11"",""P12""]},{""set_index"":4,""original_numbers"":[13,14,15,16],""ordered_numbers"":[13,14,15,16],""order_type"":""canonical"",""block1_codes"":[""P13"",""U14"",""U15"",""U16""],""block2_codes"":[""U13"",""P14"",""P15"",""P16""]},{""set_index"":5,""original_numbers"":[17,18,19,20],""ordered_numbers"":[17,18,19,20],""order_type"":""canonical"",""block1_codes"":[""U17"",""P18"",""P19"",""U20""],""block2_codes"":[""P17"",""U18"",""U19"",""P20""]},{""set_index"":6,""original_numbers"":[21,22,23,24],""ordered_numbers"":[23,21,24,22],""order_type"":""shuffled"",""block1_codes"":[""P23"",""P21"",""P24"",""U22""],""block2_codes"":[""U23"",""U21"",""U24"",""P22""]},{""set_index"":7,""original_numbers"":[25,26,27,28],""ordered_numbers"":[25,26,27,28],""order_type"":""canonical"",""block1_codes"":[""P25"",""P26"",""P27"",""U28""],""block2_codes"":[""U25"",""U26"",""U27"",""P28""]},{""set_index"":8,""original_numbers"":[29,30,31,32],""ordered_numbers"":[29,30,31,32],""order_type"":""canonical"",""block1_codes"":[""P29"",""U30"",""P31"",""U32""],""block2_codes"":[""U29"",""P30"",""U31"",""P32""]}]","6001","9037","0","","Usually people tend to press the button more numbers of times than you did.<br><br><br>As a reminder, press the <strong>SPACE BAR</strong> to mark off a boundary between two <strong>SMALL</strong> units of activity.<br><br><br>Let's try again!<br><br>","demo_feedback","","","","","","","","","","","","",""
"","","","","","video-keyboard-response","8","2.0.0","372047","47","1","2026-04-03 16:21:31","1ae03887455d64a255e840e66d192191","149.248.12.250","Mozilla/5.0 (Windows NT 10.0; Win64; x64) AppleWebKit/537.36 (KHTML, like Gecko) Chrome/146.0.0.0 Safari/537.36","WebKit","Chrome","146.0.0.0","Windows","10.0","https://uencdihehs.cognition.run/","zh-CN,zh;q=0.9","32","[""U1"",""U2"",""U3"",""P4"",""P6"",""P5"",""P7"",""U8"",""P9"",""P10"",""U11"",""U12"",""P13"",""U14"",""U15"",""U16"",""U17"",""P18"",""P19"",""U20"",""P23"",""P21"",""P24"",""U22"",""P25"",""P26"",""P27"",""U28"",""P29"",""U30"",""P31"",""U32""]","[""P1"",""P2"",""P3"",""U4"",""U6"",""U5"",""U7"",""P8"",""U9"",""U10"",""P11"",""P12"",""U13"",""P14"",""P15"",""P16"",""P17"",""U18"",""U19"",""P20"",""U23"",""U21"",""U24"",""P22"",""U25"",""U26"",""U27"",""P28"",""U29"",""P30"",""U31"",""P32""]","[{""set_index"":1,""original_numbers"":[1,2,3,4],""ordered_numbers"":[1,2,3,4],""order_type"":""canonical"",""block1_codes"":[""U1"",""U2"",""U3"",""P4""],""block2_codes"":[""P1"",""P2"",""P3"",""U4""]},{""set_index"":2,""original_numbers"":[5,6,7,8],""ordered_numbers"":[6,5,7,8],""order_type"":""shuffled"",""block1_codes"":[""P6"",""P5"",""P7"",""U8""],""block2_codes"":[""U6"",""U5"",""U7"",""P8""]},{""set_index"":3,""original_numbers"":[9,10,11,12],""ordered_numbers"":[9,10,11,12],""order_type"":""canonical"",""block1_codes"":[""P9"",""P10"",""U11"",""U12""],""block2_codes"":[""U9"",""U10"",""P11"",""P12""]},{""set_index"":4,""original_numbers"":[13,14,15,16],""ordered_numbers"":[13,14,15,16],""order_type"":""canonical"",""block1_codes"":[""P13"",""U14"",""U15"",""U16""],""block2_codes"":[""U13"",""P14"",""P15"",""P16""]},{""set_index"":5,""original_numbers"":[17,18,19,20],""ordered_numbers"":[17,18,19,20],""order_type"":""canonical"",""block1_codes"":[""U17"",""P18"",""P19"",""U20""],""block2_codes"":[""P17"",""U18"",""U19"",""P20""]},{""set_index"":6,""original_numbers"":[21,22,23,24],""ordered_numbers"":[23,21,24,22],""order_type"":""shuffled"",""block1_codes"":[""P23"",""P21"",""P24"",""U22""],""block2_codes"":[""U23"",""U21"",""U24"",""P22""]},{""set_index"":7,""original_numbers"":[25,26,27,28],""ordered_numbers"":[25,26,27,28],""order_type"":""canonical"",""block1_codes"":[""P25"",""P26"",""P27"",""U28""],""block2_codes"":[""U25"",""U26"",""U27"",""P28""]},{""set_index"":8,""original_numbers"":[29,30,31,32],""ordered_numbers"":[29,30,31,32],""order_type"":""canonical"",""block1_codes"":[""P29"",""U30"",""P31"",""U32""],""block2_codes"":[""U29"",""P30"",""U31"",""P32""]}]","6001","null","null","","[""getting_ready_v1.mp4""]","demo_video","2","demo2","getting_ready_v1.mp4","[9.439255,15.923446,30.972554]","3","","","","","","","",""
"","","","","","call-function","9","2.0.0","372048","47","1","2026-04-03 16:21:31","1ae03887455d64a255e840e66d192191","149.248.12.250","Mozilla/5.0 (Windows NT 10.0; Win64; x64) AppleWebKit/537.36 (KHTML, like Gecko) Chrome/146.0.0.0 Safari/537.36","WebKit","Chrome","146.0.0.0","Windows","10.0","https://uencdihehs.cognition.run/","zh-CN,zh;q=0.9","32","[""U1"",""U2"",""U3"",""P4"",""P6"",""P5"",""P7"",""U8"",""P9"",""P10"",""U11"",""U12"",""P13"",""U14"",""U15"",""U16"",""U17"",""P18"",""P19"",""U20"",""P23"",""P21"",""P24"",""U22"",""P25"",""P26"",""P27"",""U28"",""P29"",""U30"",""P31"",""U32""]","[""P1"",""P2"",""P3"",""U4"",""U6"",""U5"",""U7"",""P8"",""U9"",""U10"",""P11"",""P12"",""U13"",""P14"",""P15"",""P16"",""P17"",""U18"",""U19"",""P20"",""U23"",""U21"",""U24"",""P22"",""U25"",""U26"",""U27"",""P28"",""U29"",""P30"",""U31"",""P32""]","[{""set_index"":1,""original_numbers"":[1,2,3,4],""ordered_numbers"":[1,2,3,4],""order_type"":""canonical"",""block1_codes"":[""U1"",""U2"",""U3"",""P4""],""block2_codes"":[""P1"",""P2"",""P3"",""U4""]},{""set_index"":2,""original_numbers"":[5,6,7,8],""ordered_numbers"":[6,5,7,8],""order_type"":""shuffled"",""block1_codes"":[""P6"",""P5"",""P7"",""U8""],""block2_codes"":[""U6"",""U5"",""U7"",""P8""]},{""set_index"":3,""original_numbers"":[9,10,11,12],""ordered_numbers"":[9,10,11,12],""order_type"":""canonical"",""block1_codes"":[""P9"",""P10"",""U11"",""U12""],""block2_codes"":[""U9"",""U10"",""P11"",""P12""]},{""set_index"":4,""original_numbers"":[13,14,15,16],""ordered_numbers"":[13,14,15,16],""order_type"":""canonical"",""block1_codes"":[""P13"",""U14"",""U15"",""U16""],""block2_codes"":[""U13"",""P14"",""P15"",""P16""]},{""set_index"":5,""original_numbers"":[17,18,19,20],""ordered_numbers"":[17,18,19,20],""order_type"":""canonical"",""block1_codes"":[""U17"",""P18"",""P19"",""U20""],""block2_codes"":[""P17"",""U18"",""U19"",""P20""]},{""set_index"":6,""original_numbers"":[21,22,23,24],""ordered_numbers"":[23,21,24,22],""order_type"":""shuffled"",""block1_codes"":[""P23"",""P21"",""P24"",""U22""],""block2_codes"":[""U23"",""U21"",""U24"",""P22""]},{""set_index"":7,""original_numbers"":[25,26,27,28],""ordered_numbers"":[25,26,27,28],""order_type"":""canonical"",""block1_codes"":[""P25"",""P26"",""P27"",""U28""],""block2_codes"":[""U25"",""U26"",""U27"",""P28""]},{""set_index"":8,""original_numbers"":[29,30,31,32],""ordered_numbers"":[29,30,31,32],""order_type"":""canonical"",""block1_codes"":[""P29"",""U30"",""P31"",""U32""],""block2_codes"":[""U29"",""P30"",""U31"",""P32""]}]","6001","","","","","","","","","","","","","","","","","",""
"","","","","","html-button-response","10","2.0.0","404148","47","1","2026-04-03 16:21:31","1ae03887455d64a255e840e66d192191","149.248.12.250","Mozilla/5.0 (Windows NT 10.0; Win64; x64) AppleWebKit/537.36 (KHTML, like Gecko) Chrome/146.0.0.0 Safari/537.36","WebKit","Chrome","146.0.0.0","Windows","10.0","https://uencdihehs.cognition.run/","zh-CN,zh;q=0.9","32","[""U1"",""U2"",""U3"",""P4"",""P6"",""P5"",""P7"",""U8"",""P9"",""P10"",""U11"",""U12"",""P13"",""U14"",""U15"",""U16"",""U17"",""P18"",""P19"",""U20"",""P23"",""P21"",""P24"",""U22"",""P25"",""P26"",""P27"",""U28"",""P29"",""U30"",""P31"",""U32""]","[""P1"",""P2"",""P3"",""U4"",""U6"",""U5"",""U7"",""P8"",""U9"",""U10"",""P11"",""P12"",""U13"",""P14"",""P15"",""P16"",""P17"",""U18"",""U19"",""P20"",""U23"",""U21"",""U24"",""P22"",""U25"",""U26"",""U27"",""P28"",""U29"",""P30"",""U31"",""P32""]","[{""set_index"":1,""original_numbers"":[1,2,3,4],""ordered_numbers"":[1,2,3,4],""order_type"":""canonical"",""block1_codes"":[""U1"",""U2"",""U3"",""P4""],""block2_codes"":[""P1"",""P2"",""P3"",""U4""]},{""set_index"":2,""original_numbers"":[5,6,7,8],""ordered_numbers"":[6,5,7,8],""order_type"":""shuffled"",""block1_codes"":[""P6"",""P5"",""P7"",""U8""],""block2_codes"":[""U6"",""U5"",""U7"",""P8""]},{""set_index"":3,""original_numbers"":[9,10,11,12],""ordered_numbers"":[9,10,11,12],""order_type"":""canonical"",""block1_codes"":[""P9"",""P10"",""U11"",""U12""],""block2_codes"":[""U9"",""U10"",""P11"",""P12""]},{""set_index"":4,""original_numbers"":[13,14,15,16],""ordered_numbers"":[13,14,15,16],""order_type"":""canonical"",""block1_codes"":[""P13"",""U14"",""U15"",""U16""],""block2_codes"":[""U13"",""P14"",""P15"",""P16""]},{""set_index"":5,""original_numbers"":[17,18,19,20],""ordered_numbers"":[17,18,19,20],""order_type"":""canonical"",""block1_codes"":[""U17"",""P18"",""P19"",""U20""],""block2_codes"":[""P17"",""U18"",""U19"",""P20""]},{""set_index"":6,""original_numbers"":[21,22,23,24],""ordered_numbers"":[23,21,24,22],""order_type"":""shuffled"",""block1_codes"":[""P23"",""P21"",""P24"",""U22""],""block2_codes"":[""U23"",""U21"",""U24"",""P22""]},{""set_index"":7,""original_numbers"":[25,26,27,28],""ordered_numbers"":[25,26,27,28],""order_type"":""canonical"",""block1_codes"":[""P25"",""P26"",""P27"",""U28""],""block2_codes"":[""U25"",""U26"",""U27"",""P28""]},{""set_index"":8,""original_numbers"":[29,30,31,32],""ordered_numbers"":[29,30,31,32],""order_type"":""canonical"",""block1_codes"":[""P29"",""U30"",""P31"",""U32""],""block2_codes"":[""U29"",""P30"",""U31"",""P32""]}]","6001","32097","0","","Usually people tend to press the button more numbers of times than you did.<br><br><br>As a reminder, press the <strong>SPACE BAR</strong> to mark off a boundary between two <strong>SMALL</strong> units of activity.<br><br><br>Let's try again!<br><br>","demo_feedback","","","","","","","","","","","","",""
"","","","","","video-keyboard-response","11","2.0.0","439741","47","1","2026-04-03 16:21:31","1ae03887455d64a255e840e66d192191","149.248.12.250","Mozilla/5.0 (Windows NT 10.0; Win64; x64) AppleWebKit/537.36 (KHTML, like Gecko) Chrome/146.0.0.0 Safari/537.36","WebKit","Chrome","146.0.0.0","Windows","10.0","https://uencdihehs.cognition.run/","zh-CN,zh;q=0.9","32","[""U1"",""U2"",""U3"",""P4"",""P6"",""P5"",""P7"",""U8"",""P9"",""P10"",""U11"",""U12"",""P13"",""U14"",""U15"",""U16"",""U17"",""P18"",""P19"",""U20"",""P23"",""P21"",""P24"",""U22"",""P25"",""P26"",""P27"",""U28"",""P29"",""U30"",""P31"",""U32""]","[""P1"",""P2"",""P3"",""U4"",""U6"",""U5"",""U7"",""P8"",""U9"",""U10"",""P11"",""P12"",""U13"",""P14"",""P15"",""P16"",""P17"",""U18"",""U19"",""P20"",""U23"",""U21"",""U24"",""P22"",""U25"",""U26"",""U27"",""P28"",""U29"",""P30"",""U31"",""P32""]","[{""set_index"":1,""original_numbers"":[1,2,3,4],""ordered_numbers"":[1,2,3,4],""order_type"":""canonical"",""block1_codes"":[""U1"",""U2"",""U3"",""P4""],""block2_codes"":[""P1"",""P2"",""P3"",""U4""]},{""set_index"":2,""original_numbers"":[5,6,7,8],""ordered_numbers"":[6,5,7,8],""order_type"":""shuffled"",""block1_codes"":[""P6"",""P5"",""P7"",""U8""],""block2_codes"":[""U6"",""U5"",""U7"",""P8""]},{""set_index"":3,""original_numbers"":[9,10,11,12],""ordered_numbers"":[9,10,11,12],""order_type"":""canonical"",""block1_codes"":[""P9"",""P10"",""U11"",""U12""],""block2_codes"":[""U9"",""U10"",""P11"",""P12""]},{""set_index"":4,""original_numbers"":[13,14,15,16],""ordered_numbers"":[13,14,15,16],""order_type"":""canonical"",""block1_codes"":[""P13"",""U14"",""U15"",""U16""],""block2_codes"":[""U13"",""P14"",""P15"",""P16""]},{""set_index"":5,""original_numbers"":[17,18,19,20],""ordered_numbers"":[17,18,19,20],""order_type"":""canonical"",""block1_codes"":[""U17"",""P18"",""P19"",""U20""],""block2_codes"":[""P17"",""U18"",""U19"",""P20""]},{""set_index"":6,""original_numbers"":[21,22,23,24],""ordered_numbers"":[23,21,24,22],""order_type"":""shuffled"",""block1_codes"":[""P23"",""P21"",""P24"",""U22""],""block2_codes"":[""U23"",""U21"",""U24"",""P22""]},{""set_index"":7,""original_numbers"":[25,26,27,28],""ordered_numbers"":[25,26,27,28],""order_type"":""canonical"",""block1_codes"":[""P25"",""P26"",""P27"",""U28""],""block2_codes"":[""U25"",""U26"",""U27"",""P28""]},{""set_index"":8,""original_numbers"":[29,30,31,32],""ordered_numbers"":[29,30,31,32],""order_type"":""canonical"",""block1_codes"":[""P29"",""U30"",""P31"",""U32""],""block2_codes"":[""U29"",""P30"",""U31"",""P32""]}]","6001","null","null","","[""garden_v2.mp4""]","demo_video","3","demo3","garden_v2.mp4","[43.349313,7.49152,43.349313,10.502571,43.349313,18.522828,43.349313,24.171248,43.349313,33.552667]","10","","","","","","","",""
"","","","","","call-function","12","2.0.0","439742","47","1","2026-04-03 16:21:31","1ae03887455d64a255e840e66d192191","149.248.12.250","Mozilla/5.0 (Windows NT 10.0; Win64; x64) AppleWebKit/537.36 (KHTML, like Gecko) Chrome/146.0.0.0 Safari/537.36","WebKit","Chrome","146.0.0.0","Windows","10.0","https://uencdihehs.cognition.run/","zh-CN,zh;q=0.9","32","[""U1"",""U2"",""U3"",""P4"",""P6"",""P5"",""P7"",""U8"",""P9"",""P10"",""U11"",""U12"",""P13"",""U14"",""U15"",""U16"",""U17"",""P18"",""P19"",""U20"",""P23"",""P21"",""P24"",""U22"",""P25"",""P26"",""P27"",""U28"",""P29"",""U30"",""P31"",""U32""]","[""P1"",""P2"",""P3"",""U4"",""U6"",""U5"",""U7"",""P8"",""U9"",""U10"",""P11"",""P12"",""U13"",""P14"",""P15"",""P16"",""P17"",""U18"",""U19"",""P20"",""U23"",""U21"",""U24"",""P22"",""U25"",""U26"",""U27"",""P28"",""U29"",""P30"",""U31"",""P32""]","[{""set_index"":1,""original_numbers"":[1,2,3,4],""ordered_numbers"":[1,2,3,4],""order_type"":""canonical"",""block1_codes"":[""U1"",""U2"",""U3"",""P4""],""block2_codes"":[""P1"",""P2"",""P3"",""U4""]},{""set_index"":2,""original_numbers"":[5,6,7,8],""ordered_numbers"":[6,5,7,8],""order_type"":""shuffled"",""block1_codes"":[""P6"",""P5"",""P7"",""U8""],""block2_codes"":[""U6"",""U5"",""U7"",""P8""]},{""set_index"":3,""original_numbers"":[9,10,11,12],""ordered_numbers"":[9,10,11,12],""order_type"":""canonical"",""block1_codes"":[""P9"",""P10"",""U11"",""U12""],""block2_codes"":[""U9"",""U10"",""P11"",""P12""]},{""set_index"":4,""original_numbers"":[13,14,15,16],""ordered_numbers"":[13,14,15,16],""order_type"":""canonical"",""block1_codes"":[""P13"",""U14"",""U15"",""U16""],""block2_codes"":[""U13"",""P14"",""P15"",""P16""]},{""set_index"":5,""original_numbers"":[17,18,19,20],""ordered_numbers"":[17,18,19,20],""order_type"":""canonical"",""block1_codes"":[""U17"",""P18"",""P19"",""U20""],""block2_codes"":[""P17"",""U18"",""U19"",""P20""]},{""set_index"":6,""original_numbers"":[21,22,23,24],""ordered_numbers"":[23,21,24,22],""order_type"":""shuffled"",""block1_codes"":[""P23"",""P21"",""P24"",""U22""],""block2_codes"":[""U23"",""U21"",""U24"",""P22""]},{""set_index"":7,""original_numbers"":[25,26,27,28],""ordered_numbers"":[25,26,27,28],""order_type"":""canonical"",""block1_codes"":[""P25"",""P26"",""P27"",""U28""],""block2_codes"":[""U25"",""U26"",""U27"",""P28""]},{""set_index"":8,""original_numbers"":[29,30,31,32],""ordered_numbers"":[29,30,31,32],""order_type"":""canonical"",""block1_codes"":[""P29"",""U30"",""P31"",""U32""],""block2_codes"":[""U29"",""P30"",""U31"",""P32""]}]","6001","","","","","","","","","","","","","","","","","",""
"","","","","","html-button-response","13","2.0.0","443530","47","1","2026-04-03 16:21:31","1ae03887455d64a255e840e66d192191","149.248.12.250","Mozilla/5.0 (Windows NT 10.0; Win64; x64) AppleWebKit/537.36 (KHTML, like Gecko) Chrome/146.0.0.0 Safari/537.36","WebKit","Chrome","146.0.0.0","Windows","10.0","https://uencdihehs.cognition.run/","zh-CN,zh;q=0.9","32","[""U1"",""U2"",""U3"",""P4"",""P6"",""P5"",""P7"",""U8"",""P9"",""P10"",""U11"",""U12"",""P13"",""U14"",""U15"",""U16"",""U17"",""P18"",""P19"",""U20"",""P23"",""P21"",""P24"",""U22"",""P25"",""P26"",""P27"",""U28"",""P29"",""U30"",""P31"",""U32""]","[""P1"",""P2"",""P3"",""U4"",""U6"",""U5"",""U7"",""P8"",""U9"",""U10"",""P11"",""P12"",""U13"",""P14"",""P15"",""P16"",""P17"",""U18"",""U19"",""P20"",""U23"",""U21"",""U24"",""P22"",""U25"",""U26"",""U27"",""P28"",""U29"",""P30"",""U31"",""P32""]","[{""set_index"":1,""original_numbers"":[1,2,3,4],""ordered_numbers"":[1,2,3,4],""order_type"":""canonical"",""block1_codes"":[""U1"",""U2"",""U3"",""P4""],""block2_codes"":[""P1"",""P2"",""P3"",""U4""]},{""set_index"":2,""original_numbers"":[5,6,7,8],""ordered_numbers"":[6,5,7,8],""order_type"":""shuffled"",""block1_codes"":[""P6"",""P5"",""P7"",""U8""],""block2_codes"":[""U6"",""U5"",""U7"",""P8""]},{""set_index"":3,""original_numbers"":[9,10,11,12],""ordered_numbers"":[9,10,11,12],""order_type"":""canonical"",""block1_codes"":[""P9"",""P10"",""U11"",""U12""],""block2_codes"":[""U9"",""U10"",""P11"",""P12""]},{""set_index"":4,""original_numbers"":[13,14,15,16],""ordered_numbers"":[13,14,15,16],""order_type"":""canonical"",""block1_codes"":[""P13"",""U14"",""U15"",""U16""],""block2_codes"":[""U13"",""P14"",""P15"",""P16""]},{""set_index"":5,""original_numbers"":[17,18,19,20],""ordered_numbers"":[17,18,19,20],""order_type"":""canonical"",""block1_codes"":[""U17"",""P18"",""P19"",""U20""],""block2_codes"":[""P17"",""U18"",""U19"",""P20""]},{""set_index"":6,""original_numbers"":[21,22,23,24],""ordered_numbers"":[23,21,24,22],""order_type"":""shuffled"",""block1_codes"":[""P23"",""P21"",""P24"",""U22""],""block2_codes"":[""U23"",""U21"",""U24"",""P22""]},{""set_index"":7,""original_numbers"":[25,26,27,28],""ordered_numbers"":[25,26,27,28],""order_type"":""canonical"",""block1_codes"":[""P25"",""P26"",""P27"",""U28""],""block2_codes"":[""U25"",""U26"",""U27"",""P28""]},{""set_index"":8,""original_numbers"":[29,30,31,32],""ordered_numbers"":[29,30,31,32],""order_type"":""canonical"",""block1_codes"":[""P29"",""U30"",""P31"",""U32""],""block2_codes"":[""U29"",""P30"",""U31"",""P32""]}]","6001","3784","0","","Usually people tend to press the button more numbers of times than you did.<br><br><br>As a reminder, press the <strong>SPACE BAR</strong> to mark off a boundary between two <strong>SMALL</strong> units of activity.<br><br><br>Let's try again!<br><br>","demo_feedback","","","","","","","","","","","","",""
"","","","","","video-keyboard-response","14","2.0.0","487001","47","1","2026-04-03 16:21:31","1ae03887455d64a255e840e66d192191","149.248.12.250","Mozilla/5.0 (Windows NT 10.0; Win64; x64) AppleWebKit/537.36 (KHTML, like Gecko) Chrome/146.0.0.0 Safari/537.36","WebKit","Chrome","146.0.0.0","Windows","10.0","https://uencdihehs.cognition.run/","zh-CN,zh;q=0.9","32","[""U1"",""U2"",""U3"",""P4"",""P6"",""P5"",""P7"",""U8"",""P9"",""P10"",""U11"",""U12"",""P13"",""U14"",""U15"",""U16"",""U17"",""P18"",""P19"",""U20"",""P23"",""P21"",""P24"",""U22"",""P25"",""P26"",""P27"",""U28"",""P29"",""U30"",""P31"",""U32""]","[""P1"",""P2"",""P3"",""U4"",""U6"",""U5"",""U7"",""P8"",""U9"",""U10"",""P11"",""P12"",""U13"",""P14"",""P15"",""P16"",""P17"",""U18"",""U19"",""P20"",""U23"",""U21"",""U24"",""P22"",""U25"",""U26"",""U27"",""P28"",""U29"",""P30"",""U31"",""P32""]","[{""set_index"":1,""original_numbers"":[1,2,3,4],""ordered_numbers"":[1,2,3,4],""order_type"":""canonical"",""block1_codes"":[""U1"",""U2"",""U3"",""P4""],""block2_codes"":[""P1"",""P2"",""P3"",""U4""]},{""set_index"":2,""original_numbers"":[5,6,7,8],""ordered_numbers"":[6,5,7,8],""order_type"":""shuffled"",""block1_codes"":[""P6"",""P5"",""P7"",""U8""],""block2_codes"":[""U6"",""U5"",""U7"",""P8""]},{""set_index"":3,""original_numbers"":[9,10,11,12],""ordered_numbers"":[9,10,11,12],""order_type"":""canonical"",""block1_codes"":[""P9"",""P10"",""U11"",""U12""],""block2_codes"":[""U9"",""U10"",""P11"",""P12""]},{""set_index"":4,""original_numbers"":[13,14,15,16],""ordered_numbers"":[13,14,15,16],""order_type"":""canonical"",""block1_codes"":[""P13"",""U14"",""U15"",""U16""],""block2_codes"":[""U13"",""P14"",""P15"",""P16""]},{""set_index"":5,""original_numbers"":[17,18,19,20],""ordered_numbers"":[17,18,19,20],""order_type"":""canonical"",""block1_codes"":[""U17"",""P18"",""P19"",""U20""],""block2_codes"":[""P17"",""U18"",""U19"",""P20""]},{""set_index"":6,""original_numbers"":[21,22,23,24],""ordered_numbers"":[23,21,24,22],""order_type"":""shuffled"",""block1_codes"":[""P23"",""P21"",""P24"",""U22""],""block2_codes"":[""U23"",""U21"",""U24"",""P22""]},{""set_index"":7,""original_numbers"":[25,26,27,28],""ordered_numbers"":[25,26,27,28],""order_type"":""canonical"",""block1_codes"":[""P25"",""P26"",""P27"",""U28""],""block2_codes"":[""U25"",""U26"",""U27"",""P28""]},{""set_index"":8,""original_numbers"":[29,30,31,32],""ordered_numbers"":[29,30,31,32],""order_type"":""canonical"",""block1_codes"":[""P29"",""U30"",""P31"",""U32""],""block2_codes"":[""U29"",""P30"",""U31"",""P32""]}]","6001","null","null","","[""getting_ready_v2.mp4""]","demo_video","4","demo4","getting_ready_v2.mp4","[43.349313,35.413313,12.315289,43.349313,35.413313,16.074658,43.349313,35.413313,31.273649,43.349313,35.413313,42.933467]","12","","","","","","","",""
"","","","","","call-function","15","2.0.0","487001","47","1","2026-04-03 16:21:31","1ae03887455d64a255e840e66d192191","149.248.12.250","Mozilla/5.0 (Windows NT 10.0; Win64; x64) AppleWebKit/537.36 (KHTML, like Gecko) Chrome/146.0.0.0 Safari/537.36","WebKit","Chrome","146.0.0.0","Windows","10.0","https://uencdihehs.cognition.run/","zh-CN,zh;q=0.9","32","[""U1"",""U2"",""U3"",""P4"",""P6"",""P5"",""P7"",""U8"",""P9"",""P10"",""U11"",""U12"",""P13"",""U14"",""U15"",""U16"",""U17"",""P18"",""P19"",""U20"",""P23"",""P21"",""P24"",""U22"",""P25"",""P26"",""P27"",""U28"",""P29"",""U30"",""P31"",""U32""]","[""P1"",""P2"",""P3"",""U4"",""U6"",""U5"",""U7"",""P8"",""U9"",""U10"",""P11"",""P12"",""U13"",""P14"",""P15"",""P16"",""P17"",""U18"",""U19"",""P20"",""U23"",""U21"",""U24"",""P22"",""U25"",""U26"",""U27"",""P28"",""U29"",""P30"",""U31"",""P32""]","[{""set_index"":1,""original_numbers"":[1,2,3,4],""ordered_numbers"":[1,2,3,4],""order_type"":""canonical"",""block1_codes"":[""U1"",""U2"",""U3"",""P4""],""block2_codes"":[""P1"",""P2"",""P3"",""U4""]},{""set_index"":2,""original_numbers"":[5,6,7,8],""ordered_numbers"":[6,5,7,8],""order_type"":""shuffled"",""block1_codes"":[""P6"",""P5"",""P7"",""U8""],""block2_codes"":[""U6"",""U5"",""U7"",""P8""]},{""set_index"":3,""original_numbers"":[9,10,11,12],""ordered_numbers"":[9,10,11,12],""order_type"":""canonical"",""block1_codes"":[""P9"",""P10"",""U11"",""U12""],""block2_codes"":[""U9"",""U10"",""P11"",""P12""]},{""set_index"":4,""original_numbers"":[13,14,15,16],""ordered_numbers"":[13,14,15,16],""order_type"":""canonical"",""block1_codes"":[""P13"",""U14"",""U15"",""U16""],""block2_codes"":[""U13"",""P14"",""P15"",""P16""]},{""set_index"":5,""original_numbers"":[17,18,19,20],""ordered_numbers"":[17,18,19,20],""order_type"":""canonical"",""block1_codes"":[""U17"",""P18"",""P19"",""U20""],""block2_codes"":[""P17"",""U18"",""U19"",""P20""]},{""set_index"":6,""original_numbers"":[21,22,23,24],""ordered_numbers"":[23,21,24,22],""order_type"":""shuffled"",""block1_codes"":[""P23"",""P21"",""P24"",""U22""],""block2_codes"":[""U23"",""U21"",""U24"",""P22""]},{""set_index"":7,""original_numbers"":[25,26,27,28],""ordered_numbers"":[25,26,27,28],""order_type"":""canonical"",""block1_codes"":[""P25"",""P26"",""P27"",""U28""],""block2_codes"":[""U25"",""U26"",""U27"",""P28""]},{""set_index"":8,""original_numbers"":[29,30,31,32],""ordered_numbers"":[29,30,31,32],""order_type"":""canonical"",""block1_codes"":[""P29"",""U30"",""P31"",""U32""],""block2_codes"":[""U29"",""P30"",""U31"",""P32""]}]","6001","","","","","","","","","","","","","","","","","",""
"","","","","","html-button-response","16","2.0.0","494258","47","1","2026-04-03 16:21:31","1ae03887455d64a255e840e66d192191","149.248.12.250","Mozilla/5.0 (Windows NT 10.0; Win64; x64) AppleWebKit/537.36 (KHTML, like Gecko) Chrome/146.0.0.0 Safari/537.36","WebKit","Chrome","146.0.0.0","Windows","10.0","https://uencdihehs.cognition.run/","zh-CN,zh;q=0.9","32","[""U1"",""U2"",""U3"",""P4"",""P6"",""P5"",""P7"",""U8"",""P9"",""P10"",""U11"",""U12"",""P13"",""U14"",""U15"",""U16"",""U17"",""P18"",""P19"",""U20"",""P23"",""P21"",""P24"",""U22"",""P25"",""P26"",""P27"",""U28"",""P29"",""U30"",""P31"",""U32""]","[""P1"",""P2"",""P3"",""U4"",""U6"",""U5"",""U7"",""P8"",""U9"",""U10"",""P11"",""P12"",""U13"",""P14"",""P15"",""P16"",""P17"",""U18"",""U19"",""P20"",""U23"",""U21"",""U24"",""P22"",""U25"",""U26"",""U27"",""P28"",""U29"",""P30"",""U31"",""P32""]","[{""set_index"":1,""original_numbers"":[1,2,3,4],""ordered_numbers"":[1,2,3,4],""order_type"":""canonical"",""block1_codes"":[""U1"",""U2"",""U3"",""P4""],""block2_codes"":[""P1"",""P2"",""P3"",""U4""]},{""set_index"":2,""original_numbers"":[5,6,7,8],""ordered_numbers"":[6,5,7,8],""order_type"":""shuffled"",""block1_codes"":[""P6"",""P5"",""P7"",""U8""],""block2_codes"":[""U6"",""U5"",""U7"",""P8""]},{""set_index"":3,""original_numbers"":[9,10,11,12],""ordered_numbers"":[9,10,11,12],""order_type"":""canonical"",""block1_codes"":[""P9"",""P10"",""U11"",""U12""],""block2_codes"":[""U9"",""U10"",""P11"",""P12""]},{""set_index"":4,""original_numbers"":[13,14,15,16],""ordered_numbers"":[13,14,15,16],""order_type"":""canonical"",""block1_codes"":[""P13"",""U14"",""U15"",""U16""],""block2_codes"":[""U13"",""P14"",""P15"",""P16""]},{""set_index"":5,""original_numbers"":[17,18,19,20],""ordered_numbers"":[17,18,19,20],""order_type"":""canonical"",""block1_codes"":[""U17"",""P18"",""P19"",""U20""],""block2_codes"":[""P17"",""U18"",""U19"",""P20""]},{""set_index"":6,""original_numbers"":[21,22,23,24],""ordered_numbers"":[23,21,24,22],""order_type"":""shuffled"",""block1_codes"":[""P23"",""P21"",""P24"",""U22""],""block2_codes"":[""U23"",""U21"",""U24"",""P22""]},{""set_index"":7,""original_numbers"":[25,26,27,28],""ordered_numbers"":[25,26,27,28],""order_type"":""canonical"",""block1_codes"":[""P25"",""P26"",""P27"",""U28""],""block2_codes"":[""U25"",""U26"",""U27"",""P28""]},{""set_index"":8,""original_numbers"":[29,30,31,32],""ordered_numbers"":[29,30,31,32],""order_type"":""canonical"",""block1_codes"":[""P29"",""U30"",""P31"",""U32""],""block2_codes"":[""U29"",""P30"",""U31"",""P32""]}]","6001","7254","0","","Great! Hopefully you got an idea of what a meaningful unit is.<br>Remember that there is no right or wrong answer.<br> We just want to know if there are certain subunits of the video that you think are natural and meaningful.<br><br><br>Now the main experiment starts.<br> You will watch multiples videos depicting everyday activities.<br>For each clip, while watching, remember to mark off boundaries between two <strong>SMALL</strong> units of activity by pressing the SPACE bar.<br>Please pay <strong>full attention</strong> while watching. You might be tested on what happened in each clip in details later.<br><br><br>","demo_feedback","","","","","","","","","","","","",""
"","","","","","video-keyboard-response","17","2.0.0","523121","47","1","2026-04-03 16:21:31","1ae03887455d64a255e840e66d192191","149.248.12.250","Mozilla/5.0 (Windows NT 10.0; Win64; x64) AppleWebKit/537.36 (KHTML, like Gecko) Chrome/146.0.0.0 Safari/537.36","WebKit","Chrome","146.0.0.0","Windows","10.0","https://uencdihehs.cognition.run/","zh-CN,zh;q=0.9","32","[""U1"",""U2"",""U3"",""P4"",""P6"",""P5"",""P7"",""U8"",""P9"",""P10"",""U11"",""U12"",""P13"",""U14"",""U15"",""U16"",""U17"",""P18"",""P19"",""U20"",""P23"",""P21"",""P24"",""U22"",""P25"",""P26"",""P27"",""U28"",""P29"",""U30"",""P31"",""U32""]","[""P1"",""P2"",""P3"",""U4"",""U6"",""U5"",""U7"",""P8"",""U9"",""U10"",""P11"",""P12"",""U13"",""P14"",""P15"",""P16"",""P17"",""U18"",""U19"",""P20"",""U23"",""U21"",""U24"",""P22"",""U25"",""U26"",""U27"",""P28"",""U29"",""P30"",""U31"",""P32""]","[{""set_index"":1,""original_numbers"":[1,2,3,4],""ordered_numbers"":[1,2,3,4],""order_type"":""canonical"",""block1_codes"":[""U1"",""U2"",""U3"",""P4""],""block2_codes"":[""P1"",""P2"",""P3"",""U4""]},{""set_index"":2,""original_numbers"":[5,6,7,8],""ordered_numbers"":[6,5,7,8],""order_type"":""shuffled"",""block1_codes"":[""P6"",""P5"",""P7"",""U8""],""block2_codes"":[""U6"",""U5"",""U7"",""P8""]},{""set_index"":3,""original_numbers"":[9,10,11,12],""ordered_numbers"":[9,10,11,12],""order_type"":""canonical"",""block1_codes"":[""P9"",""P10"",""U11"",""U12""],""block2_codes"":[""U9"",""U10"",""P11"",""P12""]},{""set_index"":4,""original_numbers"":[13,14,15,16],""ordered_numbers"":[13,14,15,16],""order_type"":""canonical"",""block1_codes"":[""P13"",""U14"",""U15"",""U16""],""block2_codes"":[""U13"",""P14"",""P15"",""P16""]},{""set_index"":5,""original_numbers"":[17,18,19,20],""ordered_numbers"":[17,18,19,20],""order_type"":""canonical"",""block1_codes"":[""U17"",""P18"",""P19"",""U20""],""block2_codes"":[""P17"",""U18"",""U19"",""P20""]},{""set_index"":6,""original_numbers"":[21,22,23,24],""ordered_numbers"":[23,21,24,22],""order_type"":""shuffled"",""block1_codes"":[""P23"",""P21"",""P24"",""U22""],""block2_codes"":[""U23"",""U21"",""U24"",""P22""]},{""set_index"":7,""original_numbers"":[25,26,27,28],""ordered_numbers"":[25,26,27,28],""order_type"":""canonical"",""block1_codes"":[""P25"",""P26"",""P27"",""U28""],""block2_codes"":[""U25"",""U26"",""U27"",""P28""]},{""set_index"":8,""original_numbers"":[29,30,31,32],""ordered_numbers"":[29,30,31,32],""order_type"":""canonical"",""block1_codes"":[""P29"",""U30"",""P31"",""U32""],""block2_codes"":[""U29"",""P30"",""U31"",""P32""]}]","6001","null","null","","[""baking_v2.mp4""]","segmentation_video","","","baking_v2.mp4","[4.112601,16.749636,19.930041,23.580853]","4","","U1","1","1","1","false","",""
"","","","","","survey-multi-choice","18","2.0.0","535722","47","1","2026-04-03 16:21:31","1ae03887455d64a255e840e66d192191","149.248.12.250","Mozilla/5.0 (Windows NT 10.0; Win64; x64) AppleWebKit/537.36 (KHTML, like Gecko) Chrome/146.0.0.0 Safari/537.36","WebKit","Chrome","146.0.0.0","Windows","10.0","https://uencdihehs.cognition.run/","zh-CN,zh;q=0.9","32","[""U1"",""U2"",""U3"",""P4"",""P6"",""P5"",""P7"",""U8"",""P9"",""P10"",""U11"",""U12"",""P13"",""U14"",""U15"",""U16"",""U17"",""P18"",""P19"",""U20"",""P23"",""P21"",""P24"",""U22"",""P25"",""P26"",""P27"",""U28"",""P29"",""U30"",""P31"",""U32""]","[""P1"",""P2"",""P3"",""U4"",""U6"",""U5"",""U7"",""P8"",""U9"",""U10"",""P11"",""P12"",""U13"",""P14"",""P15"",""P16"",""P17"",""U18"",""U19"",""P20"",""U23"",""U21"",""U24"",""P22"",""U25"",""U26"",""U27"",""P28"",""U29"",""P30"",""U31"",""P32""]","[{""set_index"":1,""original_numbers"":[1,2,3,4],""ordered_numbers"":[1,2,3,4],""order_type"":""canonical"",""block1_codes"":[""U1"",""U2"",""U3"",""P4""],""block2_codes"":[""P1"",""P2"",""P3"",""U4""]},{""set_index"":2,""original_numbers"":[5,6,7,8],""ordered_numbers"":[6,5,7,8],""order_type"":""shuffled"",""block1_codes"":[""P6"",""P5"",""P7"",""U8""],""block2_codes"":[""U6"",""U5"",""U7"",""P8""]},{""set_index"":3,""original_numbers"":[9,10,11,12],""ordered_numbers"":[9,10,11,12],""order_type"":""canonical"",""block1_codes"":[""P9"",""P10"",""U11"",""U12""],""block2_codes"":[""U9"",""U10"",""P11"",""P12""]},{""set_index"":4,""original_numbers"":[13,14,15,16],""ordered_numbers"":[13,14,15,16],""order_type"":""canonical"",""block1_codes"":[""P13"",""U14"",""U15"",""U16""],""block2_codes"":[""U13"",""P14"",""P15"",""P16""]},{""set_index"":5,""original_numbers"":[17,18,19,20],""ordered_numbers"":[17,18,19,20],""order_type"":""canonical"",""block1_codes"":[""U17"",""P18"",""P19"",""U20""],""block2_codes"":[""P17"",""U18"",""U19"",""P20""]},{""set_index"":6,""original_numbers"":[21,22,23,24],""ordered_numbers"":[23,21,24,22],""order_type"":""shuffled"",""block1_codes"":[""P23"",""P21"",""P24"",""U22""],""block2_codes"":[""U23"",""U21"",""U24"",""P22""]},{""set_index"":7,""original_numbers"":[25,26,27,28],""ordered_numbers"":[25,26,27,28],""order_type"":""canonical"",""block1_codes"":[""P25"",""P26"",""P27"",""U28""],""block2_codes"":[""U25"",""U26"",""U27"",""P28""]},{""set_index"":8,""original_numbers"":[29,30,31,32],""ordered_numbers"":[29,30,31,32],""order_type"":""canonical"",""block1_codes"":[""P29"",""U30"",""P31"",""U32""],""block2_codes"":[""U29"",""P30"",""U31"",""P32""]}]","6001","12596","{""confidence_rating"":""Moderately confident""}","","","confidence_question","","","","","","","U1","1","1","1","","[0]","Moderately confident"
"","","","","","video-keyboard-response","19","2.0.0","563534","47","1","2026-04-03 16:21:31","1ae03887455d64a255e840e66d192191","149.248.12.250","Mozilla/5.0 (Windows NT 10.0; Win64; x64) AppleWebKit/537.36 (KHTML, like Gecko) Chrome/146.0.0.0 Safari/537.36","WebKit","Chrome","146.0.0.0","Windows","10.0","https://uencdihehs.cognition.run/","zh-CN,zh;q=0.9","32","[""U1"",""U2"",""U3"",""P4"",""P6"",""P5"",""P7"",""U8"",""P9"",""P10"",""U11"",""U12"",""P13"",""U14"",""U15"",""U16"",""U17"",""P18"",""P19"",""U20"",""P23"",""P21"",""P24"",""U22"",""P25"",""P26"",""P27"",""U28"",""P29"",""U30"",""P31"",""U32""]","[""P1"",""P2"",""P3"",""U4"",""U6"",""U5"",""U7"",""P8"",""U9"",""U10"",""P11"",""P12"",""U13"",""P14"",""P15"",""P16"",""P17"",""U18"",""U19"",""P20"",""U23"",""U21"",""U24"",""P22"",""U25"",""U26"",""U27"",""P28"",""U29"",""P30"",""U31"",""P32""]","[{""set_index"":1,""original_numbers"":[1,2,3,4],""ordered_numbers"":[1,2,3,4],""order_type"":""canonical"",""block1_codes"":[""U1"",""U2"",""U3"",""P4""],""block2_codes"":[""P1"",""P2"",""P3"",""U4""]},{""set_index"":2,""original_numbers"":[5,6,7,8],""ordered_numbers"":[6,5,7,8],""order_type"":""shuffled"",""block1_codes"":[""P6"",""P5"",""P7"",""U8""],""block2_codes"":[""U6"",""U5"",""U7"",""P8""]},{""set_index"":3,""original_numbers"":[9,10,11,12],""ordered_numbers"":[9,10,11,12],""order_type"":""canonical"",""block1_codes"":[""P9"",""P10"",""U11"",""U12""],""block2_codes"":[""U9"",""U10"",""P11"",""P12""]},{""set_index"":4,""original_numbers"":[13,14,15,16],""ordered_numbers"":[13,14,15,16],""order_type"":""canonical"",""block1_codes"":[""P13"",""U14"",""U15"",""U16""],""block2_codes"":[""U13"",""P14"",""P15"",""P16""]},{""set_index"":5,""original_numbers"":[17,18,19,20],""ordered_numbers"":[17,18,19,20],""order_type"":""canonical"",""block1_codes"":[""U17"",""P18"",""P19"",""U20""],""block2_codes"":[""P17"",""U18"",""U19"",""P20""]},{""set_index"":6,""original_numbers"":[21,22,23,24],""ordered_numbers"":[23,21,24,22],""order_type"":""shuffled"",""block1_codes"":[""P23"",""P21"",""P24"",""U22""],""block2_codes"":[""U23"",""U21"",""U24"",""P22""]},{""set_index"":7,""original_numbers"":[25,26,27,28],""ordered_numbers"":[25,26,27,28],""order_type"":""canonical"",""block1_codes"":[""P25"",""P26"",""P27"",""U28""],""block2_codes"":[""U25"",""U26"",""U27"",""P28""]},{""set_index"":8,""original_numbers"":[29,30,31,32],""ordered_numbers"":[29,30,31,32],""order_type"":""canonical"",""block1_codes"":[""P29"",""U30"",""P31"",""U32""],""block2_codes"":[""U29"",""P30"",""U31"",""P32""]}]","6001","null","null","","[""balcony_v2.mp4""]","segmentation_video","","","balcony_v2.mp4","[2.148218,7.030174,8.922312,18.72335,24.746563]","5","","U2","2","1","2","false","",""
"","","","","","survey-multi-choice","20","2.0.0","573135","47","1","2026-04-03 16:21:31","1ae03887455d64a255e840e66d192191","149.248.12.250","Mozilla/5.0 (Windows NT 10.0; Win64; x64) AppleWebKit/537.36 (KHTML, like Gecko) Chrome/146.0.0.0 Safari/537.36","WebKit","Chrome","146.0.0.0","Windows","10.0","https://uencdihehs.cognition.run/","zh-CN,zh;q=0.9","32","[""U1"",""U2"",""U3"",""P4"",""P6"",""P5"",""P7"",""U8"",""P9"",""P10"",""U11"",""U12"",""P13"",""U14"",""U15"",""U16"",""U17"",""P18"",""P19"",""U20"",""P23"",""P21"",""P24"",""U22"",""P25"",""P26"",""P27"",""U28"",""P29"",""U30"",""P31"",""U32""]","[""P1"",""P2"",""P3"",""U4"",""U6"",""U5"",""U7"",""P8"",""U9"",""U10"",""P11"",""P12"",""U13"",""P14"",""P15"",""P16"",""P17"",""U18"",""U19"",""P20"",""U23"",""U21"",""U24"",""P22"",""U25"",""U26"",""U27"",""P28"",""U29"",""P30"",""U31"",""P32""]","[{""set_index"":1,""original_numbers"":[1,2,3,4],""ordered_numbers"":[1,2,3,4],""order_type"":""canonical"",""block1_codes"":[""U1"",""U2"",""U3"",""P4""],""block2_codes"":[""P1"",""P2"",""P3"",""U4""]},{""set_index"":2,""original_numbers"":[5,6,7,8],""ordered_numbers"":[6,5,7,8],""order_type"":""shuffled"",""block1_codes"":[""P6"",""P5"",""P7"",""U8""],""block2_codes"":[""U6"",""U5"",""U7"",""P8""]},{""set_index"":3,""original_numbers"":[9,10,11,12],""ordered_numbers"":[9,10,11,12],""order_type"":""canonical"",""block1_codes"":[""P9"",""P10"",""U11"",""U12""],""block2_codes"":[""U9"",""U10"",""P11"",""P12""]},{""set_index"":4,""original_numbers"":[13,14,15,16],""ordered_numbers"":[13,14,15,16],""order_type"":""canonical"",""block1_codes"":[""P13"",""U14"",""U15"",""U16""],""block2_codes"":[""U13"",""P14"",""P15"",""P16""]},{""set_index"":5,""original_numbers"":[17,18,19,20],""ordered_numbers"":[17,18,19,20],""order_type"":""canonical"",""block1_codes"":[""U17"",""P18"",""P19"",""U20""],""block2_codes"":[""P17"",""U18"",""U19"",""P20""]},{""set_index"":6,""original_numbers"":[21,22,23,24],""ordered_numbers"":[23,21,24,22],""order_type"":""shuffled"",""block1_codes"":[""P23"",""P21"",""P24"",""U22""],""block2_codes"":[""U23"",""U21"",""U24"",""P22""]},{""set_index"":7,""original_numbers"":[25,26,27,28],""ordered_numbers"":[25,26,27,28],""order_type"":""canonical"",""block1_codes"":[""P25"",""P26"",""P27"",""U28""],""block2_codes"":[""U25"",""U26"",""U27"",""P28""]},{""set_index"":8,""original_numbers"":[29,30,31,32],""ordered_numbers"":[29,30,31,32],""order_type"":""canonical"",""block1_codes"":[""P29"",""U30"",""P31"",""U32""],""block2_codes"":[""U29"",""P30"",""U31"",""P32""]}]","6001","9598","{""confidence_rating"":""Slightly unconfident""}","","","confidence_question","","","","","","","U2","2","1","2","","[0]","Slightly unconfident"
"","","","","","video-keyboard-response","21","2.0.0","592374","47","1","2026-04-03 16:21:31","1ae03887455d64a255e840e66d192191","149.248.12.250","Mozilla/5.0 (Windows NT 10.0; Win64; x64) AppleWebKit/537.36 (KHTML, like Gecko) Chrome/146.0.0.0 Safari/537.36","WebKit","Chrome","146.0.0.0","Windows","10.0","https://uencdihehs.cognition.run/","zh-CN,zh;q=0.9","32","[""U1"",""U2"",""U3"",""P4"",""P6"",""P5"",""P7"",""U8"",""P9"",""P10"",""U11"",""U12"",""P13"",""U14"",""U15"",""U16"",""U17"",""P18"",""P19"",""U20"",""P23"",""P21"",""P24"",""U22"",""P25"",""P26"",""P27"",""U28"",""P29"",""U30"",""P31"",""U32""]","[""P1"",""P2"",""P3"",""U4"",""U6"",""U5"",""U7"",""P8"",""U9"",""U10"",""P11"",""P12"",""U13"",""P14"",""P15"",""P16"",""P17"",""U18"",""U19"",""P20"",""U23"",""U21"",""U24"",""P22"",""U25"",""U26"",""U27"",""P28"",""U29"",""P30"",""U31"",""P32""]","[{""set_index"":1,""original_numbers"":[1,2,3,4],""ordered_numbers"":[1,2,3,4],""order_type"":""canonical"",""block1_codes"":[""U1"",""U2"",""U3"",""P4""],""block2_codes"":[""P1"",""P2"",""P3"",""U4""]},{""set_index"":2,""original_numbers"":[5,6,7,8],""ordered_numbers"":[6,5,7,8],""order_type"":""shuffled"",""block1_codes"":[""P6"",""P5"",""P7"",""U8""],""block2_codes"":[""U6"",""U5"",""U7"",""P8""]},{""set_index"":3,""original_numbers"":[9,10,11,12],""ordered_numbers"":[9,10,11,12],""order_type"":""canonical"",""block1_codes"":[""P9"",""P10"",""U11"",""U12""],""block2_codes"":[""U9"",""U10"",""P11"",""P12""]},{""set_index"":4,""original_numbers"":[13,14,15,16],""ordered_numbers"":[13,14,15,16],""order_type"":""canonical"",""block1_codes"":[""P13"",""U14"",""U15"",""U16""],""block2_codes"":[""U13"",""P14"",""P15"",""P16""]},{""set_index"":5,""original_numbers"":[17,18,19,20],""ordered_numbers"":[17,18,19,20],""order_type"":""canonical"",""block1_codes"":[""U17"",""P18"",""P19"",""U20""],""block2_codes"":[""P17"",""U18"",""U19"",""P20""]},{""set_index"":6,""original_numbers"":[21,22,23,24],""ordered_numbers"":[23,21,24,22],""order_type"":""shuffled"",""block1_codes"":[""P23"",""P21"",""P24"",""U22""],""block2_codes"":[""U23"",""U21"",""U24"",""P22""]},{""set_index"":7,""original_numbers"":[25,26,27,28],""ordered_numbers"":[25,26,27,28],""order_type"":""canonical"",""block1_codes"":[""P25"",""P26"",""P27"",""U28""],""block2_codes"":[""U25"",""U26"",""U27"",""P28""]},{""set_index"":8,""original_numbers"":[29,30,31,32],""ordered_numbers"":[29,30,31,32],""order_type"":""canonical"",""block1_codes"":[""P29"",""U30"",""P31"",""U32""],""block2_codes"":[""U29"",""P30"",""U31"",""P32""]}]","6001","null","null","","[""bank_v2.mp4""]","segmentation_video","","","bank_v2.mp4","[5.237747,10.710444,12.282853,16.312696,18.057542]","5","","U3","3","1","3","false","",""
"","","","","","survey-multi-choice","22","2.0.0","596860","47","1","2026-04-03 16:21:31","1ae03887455d64a255e840e66d192191","149.248.12.250","Mozilla/5.0 (Windows NT 10.0; Win64; x64) AppleWebKit/537.36 (KHTML, like Gecko) Chrome/146.0.0.0 Safari/537.36","WebKit","Chrome","146.0.0.0","Windows","10.0","https://uencdihehs.cognition.run/","zh-CN,zh;q=0.9","32","[""U1"",""U2"",""U3"",""P4"",""P6"",""P5"",""P7"",""U8"",""P9"",""P10"",""U11"",""U12"",""P13"",""U14"",""U15"",""U16"",""U17"",""P18"",""P19"",""U20"",""P23"",""P21"",""P24"",""U22"",""P25"",""P26"",""P27"",""U28"",""P29"",""U30"",""P31"",""U32""]","[""P1"",""P2"",""P3"",""U4"",""U6"",""U5"",""U7"",""P8"",""U9"",""U10"",""P11"",""P12"",""U13"",""P14"",""P15"",""P16"",""P17"",""U18"",""U19"",""P20"",""U23"",""U21"",""U24"",""P22"",""U25"",""U26"",""U27"",""P28"",""U29"",""P30"",""U31"",""P32""]","[{""set_index"":1,""original_numbers"":[1,2,3,4],""ordered_numbers"":[1,2,3,4],""order_type"":""canonical"",""block1_codes"":[""U1"",""U2"",""U3"",""P4""],""block2_codes"":[""P1"",""P2"",""P3"",""U4""]},{""set_index"":2,""original_numbers"":[5,6,7,8],""ordered_numbers"":[6,5,7,8],""order_type"":""shuffled"",""block1_codes"":[""P6"",""P5"",""P7"",""U8""],""block2_codes"":[""U6"",""U5"",""U7"",""P8""]},{""set_index"":3,""original_numbers"":[9,10,11,12],""ordered_numbers"":[9,10,11,12],""order_type"":""canonical"",""block1_codes"":[""P9"",""P10"",""U11"",""U12""],""block2_codes"":[""U9"",""U10"",""P11"",""P12""]},{""set_index"":4,""original_numbers"":[13,14,15,16],""ordered_numbers"":[13,14,15,16],""order_type"":""canonical"",""block1_codes"":[""P13"",""U14"",""U15"",""U16""],""block2_codes"":[""U13"",""P14"",""P15"",""P16""]},{""set_index"":5,""original_numbers"":[17,18,19,20],""ordered_numbers"":[17,18,19,20],""order_type"":""canonical"",""block1_codes"":[""U17"",""P18"",""P19"",""U20""],""block2_codes"":[""P17"",""U18"",""U19"",""P20""]},{""set_index"":6,""original_numbers"":[21,22,23,24],""ordered_numbers"":[23,21,24,22],""order_type"":""shuffled"",""block1_codes"":[""P23"",""P21"",""P24"",""U22""],""block2_codes"":[""U23"",""U21"",""U24"",""P22""]},{""set_index"":7,""original_numbers"":[25,26,27,28],""ordered_numbers"":[25,26,27,28],""order_type"":""canonical"",""block1_codes"":[""P25"",""P26"",""P27"",""U28""],""block2_codes"":[""U25"",""U26"",""U27"",""P28""]},{""set_index"":8,""original_numbers"":[29,30,31,32],""ordered_numbers"":[29,30,31,32],""order_type"":""canonical"",""block1_codes"":[""P29"",""U30"",""P31"",""U32""],""block2_codes"":[""U29"",""P30"",""U31"",""P32""]}]","6001","4474","{""confidence_rating"":""Neutral""}","","","confidence_question","","","","","","","U3","3","1","3","","[0]","Neutral"
"","","","","","video-keyboard-response","23","2.0.0","632094","47","1","2026-04-03 16:21:31","1ae03887455d64a255e840e66d192191","149.248.12.250","Mozilla/5.0 (Windows NT 10.0; Win64; x64) AppleWebKit/537.36 (KHTML, like Gecko) Chrome/146.0.0.0 Safari/537.36","WebKit","Chrome","146.0.0.0","Windows","10.0","https://uencdihehs.cognition.run/","zh-CN,zh;q=0.9","32","[""U1"",""U2"",""U3"",""P4"",""P6"",""P5"",""P7"",""U8"",""P9"",""P10"",""U11"",""U12"",""P13"",""U14"",""U15"",""U16"",""U17"",""P18"",""P19"",""U20"",""P23"",""P21"",""P24"",""U22"",""P25"",""P26"",""P27"",""U28"",""P29"",""U30"",""P31"",""U32""]","[""P1"",""P2"",""P3"",""U4"",""U6"",""U5"",""U7"",""P8"",""U9"",""U10"",""P11"",""P12"",""U13"",""P14"",""P15"",""P16"",""P17"",""U18"",""U19"",""P20"",""U23"",""U21"",""U24"",""P22"",""U25"",""U26"",""U27"",""P28"",""U29"",""P30"",""U31"",""P32""]","[{""set_index"":1,""original_numbers"":[1,2,3,4],""ordered_numbers"":[1,2,3,4],""order_type"":""canonical"",""block1_codes"":[""U1"",""U2"",""U3"",""P4""],""block2_codes"":[""P1"",""P2"",""P3"",""U4""]},{""set_index"":2,""original_numbers"":[5,6,7,8],""ordered_numbers"":[6,5,7,8],""order_type"":""shuffled"",""block1_codes"":[""P6"",""P5"",""P7"",""U8""],""block2_codes"":[""U6"",""U5"",""U7"",""P8""]},{""set_index"":3,""original_numbers"":[9,10,11,12],""ordered_numbers"":[9,10,11,12],""order_type"":""canonical"",""block1_codes"":[""P9"",""P10"",""U11"",""U12""],""block2_codes"":[""U9"",""U10"",""P11"",""P12""]},{""set_index"":4,""original_numbers"":[13,14,15,16],""ordered_numbers"":[13,14,15,16],""order_type"":""canonical"",""block1_codes"":[""P13"",""U14"",""U15"",""U16""],""block2_codes"":[""U13"",""P14"",""P15"",""P16""]},{""set_index"":5,""original_numbers"":[17,18,19,20],""ordered_numbers"":[17,18,19,20],""order_type"":""canonical"",""block1_codes"":[""U17"",""P18"",""P19"",""U20""],""block2_codes"":[""P17"",""U18"",""U19"",""P20""]},{""set_index"":6,""original_numbers"":[21,22,23,24],""ordered_numbers"":[23,21,24,22],""order_type"":""shuffled"",""block1_codes"":[""P23"",""P21"",""P24"",""U22""],""block2_codes"":[""U23"",""U21"",""U24"",""P22""]},{""set_index"":7,""original_numbers"":[25,26,27,28],""ordered_numbers"":[25,26,27,28],""order_type"":""canonical"",""block1_codes"":[""P25"",""P26"",""P27"",""U28""],""block2_codes"":[""U25"",""U26"",""U27"",""P28""]},{""set_index"":8,""original_numbers"":[29,30,31,32],""ordered_numbers"":[29,30,31,32],""order_type"":""canonical"",""block1_codes"":[""P29"",""U30"",""P31"",""U32""],""block2_codes"":[""U29"",""P30"",""U31"",""P32""]}]","6001","null","null","","[""bathroom_v1.mp4""]","segmentation_video","","","bathroom_v1.mp4","[3.872521,6.377953,9.501004,14.732223,17.295881,22.961934,27.225831,33.678876]","8","","P4","4","1","4","false","",""
"","","","","","survey-multi-choice","24","2.0.0","637095","47","1","2026-04-03 16:21:31","1ae03887455d64a255e840e66d192191","149.248.12.250","Mozilla/5.0 (Windows NT 10.0; Win64; x64) AppleWebKit/537.36 (KHTML, like Gecko) Chrome/146.0.0.0 Safari/537.36","WebKit","Chrome","146.0.0.0","Windows","10.0","https://uencdihehs.cognition.run/","zh-CN,zh;q=0.9","32","[""U1"",""U2"",""U3"",""P4"",""P6"",""P5"",""P7"",""U8"",""P9"",""P10"",""U11"",""U12"",""P13"",""U14"",""U15"",""U16"",""U17"",""P18"",""P19"",""U20"",""P23"",""P21"",""P24"",""U22"",""P25"",""P26"",""P27"",""U28"",""P29"",""U30"",""P31"",""U32""]","[""P1"",""P2"",""P3"",""U4"",""U6"",""U5"",""U7"",""P8"",""U9"",""U10"",""P11"",""P12"",""U13"",""P14"",""P15"",""P16"",""P17"",""U18"",""U19"",""P20"",""U23"",""U21"",""U24"",""P22"",""U25"",""U26"",""U27"",""P28"",""U29"",""P30"",""U31"",""P32""]","[{""set_index"":1,""original_numbers"":[1,2,3,4],""ordered_numbers"":[1,2,3,4],""order_type"":""canonical"",""block1_codes"":[""U1"",""U2"",""U3"",""P4""],""block2_codes"":[""P1"",""P2"",""P3"",""U4""]},{""set_index"":2,""original_numbers"":[5,6,7,8],""ordered_numbers"":[6,5,7,8],""order_type"":""shuffled"",""block1_codes"":[""P6"",""P5"",""P7"",""U8""],""block2_codes"":[""U6"",""U5"",""U7"",""P8""]},{""set_index"":3,""original_numbers"":[9,10,11,12],""ordered_numbers"":[9,10,11,12],""order_type"":""canonical"",""block1_codes"":[""P9"",""P10"",""U11"",""U12""],""block2_codes"":[""U9"",""U10"",""P11"",""P12""]},{""set_index"":4,""original_numbers"":[13,14,15,16],""ordered_numbers"":[13,14,15,16],""order_type"":""canonical"",""block1_codes"":[""P13"",""U14"",""U15"",""U16""],""block2_codes"":[""U13"",""P14"",""P15"",""P16""]},{""set_index"":5,""original_numbers"":[17,18,19,20],""ordered_numbers"":[17,18,19,20],""order_type"":""canonical"",""block1_codes"":[""U17"",""P18"",""P19"",""U20""],""block2_codes"":[""P17"",""U18"",""U19"",""P20""]},{""set_index"":6,""original_numbers"":[21,22,23,24],""ordered_numbers"":[23,21,24,22],""order_type"":""shuffled"",""block1_codes"":[""P23"",""P21"",""P24"",""U22""],""block2_codes"":[""U23"",""U21"",""U24"",""P22""]},{""set_index"":7,""original_numbers"":[25,26,27,28],""ordered_numbers"":[25,26,27,28],""order_type"":""canonical"",""block1_codes"":[""P25"",""P26"",""P27"",""U28""],""block2_codes"":[""U25"",""U26"",""U27"",""P28""]},{""set_index"":8,""original_numbers"":[29,30,31,32],""ordered_numbers"":[29,30,31,32],""order_type"":""canonical"",""block1_codes"":[""P29"",""U30"",""P31"",""U32""],""block2_codes"":[""U29"",""P30"",""U31"",""P32""]}]","6001","4998","{""confidence_rating"":""Moderately confident""}","","","confidence_question","","","","","","","P4","4","1","4","","[0]","Moderately confident"
"","","","","","video-keyboard-response","25","2.0.0","671916","47","1","2026-04-03 16:21:31","1ae03887455d64a255e840e66d192191","149.248.12.250","Mozilla/5.0 (Windows NT 10.0; Win64; x64) AppleWebKit/537.36 (KHTML, like Gecko) Chrome/146.0.0.0 Safari/537.36","WebKit","Chrome","146.0.0.0","Windows","10.0","https://uencdihehs.cognition.run/","zh-CN,zh;q=0.9","32","[""U1"",""U2"",""U3"",""P4"",""P6"",""P5"",""P7"",""U8"",""P9"",""P10"",""U11"",""U12"",""P13"",""U14"",""U15"",""U16"",""U17"",""P18"",""P19"",""U20"",""P23"",""P21"",""P24"",""U22"",""P25"",""P26"",""P27"",""U28"",""P29"",""U30"",""P31"",""U32""]","[""P1"",""P2"",""P3"",""U4"",""U6"",""U5"",""U7"",""P8"",""U9"",""U10"",""P11"",""P12"",""U13"",""P14"",""P15"",""P16"",""P17"",""U18"",""U19"",""P20"",""U23"",""U21"",""U24"",""P22"",""U25"",""U26"",""U27"",""P28"",""U29"",""P30"",""U31"",""P32""]","[{""set_index"":1,""original_numbers"":[1,2,3,4],""ordered_numbers"":[1,2,3,4],""order_type"":""canonical"",""block1_codes"":[""U1"",""U2"",""U3"",""P4""],""block2_codes"":[""P1"",""P2"",""P3"",""U4""]},{""set_index"":2,""original_numbers"":[5,6,7,8],""ordered_numbers"":[6,5,7,8],""order_type"":""shuffled"",""block1_codes"":[""P6"",""P5"",""P7"",""U8""],""block2_codes"":[""U6"",""U5"",""U7"",""P8""]},{""set_index"":3,""original_numbers"":[9,10,11,12],""ordered_numbers"":[9,10,11,12],""order_type"":""canonical"",""block1_codes"":[""P9"",""P10"",""U11"",""U12""],""block2_codes"":[""U9"",""U10"",""P11"",""P12""]},{""set_index"":4,""original_numbers"":[13,14,15,16],""ordered_numbers"":[13,14,15,16],""order_type"":""canonical"",""block1_codes"":[""P13"",""U14"",""U15"",""U16""],""block2_codes"":[""U13"",""P14"",""P15"",""P16""]},{""set_index"":5,""original_numbers"":[17,18,19,20],""ordered_numbers"":[17,18,19,20],""order_type"":""canonical"",""block1_codes"":[""U17"",""P18"",""P19"",""U20""],""block2_codes"":[""P17"",""U18"",""U19"",""P20""]},{""set_index"":6,""original_numbers"":[21,22,23,24],""ordered_numbers"":[23,21,24,22],""order_type"":""shuffled"",""block1_codes"":[""P23"",""P21"",""P24"",""U22""],""block2_codes"":[""U23"",""U21"",""U24"",""P22""]},{""set_index"":7,""original_numbers"":[25,26,27,28],""ordered_numbers"":[25,26,27,28],""order_type"":""canonical"",""block1_codes"":[""P25"",""P26"",""P27"",""U28""],""block2_codes"":[""U25"",""U26"",""U27"",""P28""]},{""set_index"":8,""original_numbers"":[29,30,31,32],""ordered_numbers"":[29,30,31,32],""order_type"":""canonical"",""block1_codes"":[""P29"",""U30"",""P31"",""U32""],""block2_codes"":[""U29"",""P30"",""U31"",""P32""]}]","6001","null","null","","[""bedding_v1.mp4""]","segmentation_video","","","bedding_v1.mp4","[5.498522,10.487635,23.053096,29.215566,32.218338]","5","","P6","6","1","5","false","",""
"","","","","","survey-multi-choice","26","2.0.0","677245","47","1","2026-04-03 16:21:31","1ae03887455d64a255e840e66d192191","149.248.12.250","Mozilla/5.0 (Windows NT 10.0; Win64; x64) AppleWebKit/537.36 (KHTML, like Gecko) Chrome/146.0.0.0 Safari/537.36","WebKit","Chrome","146.0.0.0","Windows","10.0","https://uencdihehs.cognition.run/","zh-CN,zh;q=0.9","32","[""U1"",""U2"",""U3"",""P4"",""P6"",""P5"",""P7"",""U8"",""P9"",""P10"",""U11"",""U12"",""P13"",""U14"",""U15"",""U16"",""U17"",""P18"",""P19"",""U20"",""P23"",""P21"",""P24"",""U22"",""P25"",""P26"",""P27"",""U28"",""P29"",""U30"",""P31"",""U32""]","[""P1"",""P2"",""P3"",""U4"",""U6"",""U5"",""U7"",""P8"",""U9"",""U10"",""P11"",""P12"",""U13"",""P14"",""P15"",""P16"",""P17"",""U18"",""U19"",""P20"",""U23"",""U21"",""U24"",""P22"",""U25"",""U26"",""U27"",""P28"",""U29"",""P30"",""U31"",""P32""]","[{""set_index"":1,""original_numbers"":[1,2,3,4],""ordered_numbers"":[1,2,3,4],""order_type"":""canonical"",""block1_codes"":[""U1"",""U2"",""U3"",""P4""],""block2_codes"":[""P1"",""P2"",""P3"",""U4""]},{""set_index"":2,""original_numbers"":[5,6,7,8],""ordered_numbers"":[6,5,7,8],""order_type"":""shuffled"",""block1_codes"":[""P6"",""P5"",""P7"",""U8""],""block2_codes"":[""U6"",""U5"",""U7"",""P8""]},{""set_index"":3,""original_numbers"":[9,10,11,12],""ordered_numbers"":[9,10,11,12],""order_type"":""canonical"",""block1_codes"":[""P9"",""P10"",""U11"",""U12""],""block2_codes"":[""U9"",""U10"",""P11"",""P12""]},{""set_index"":4,""original_numbers"":[13,14,15,16],""ordered_numbers"":[13,14,15,16],""order_type"":""canonical"",""block1_codes"":[""P13"",""U14"",""U15"",""U16""],""block2_codes"":[""U13"",""P14"",""P15"",""P16""]},{""set_index"":5,""original_numbers"":[17,18,19,20],""ordered_numbers"":[17,18,19,20],""order_type"":""canonical"",""block1_codes"":[""U17"",""P18"",""P19"",""U20""],""block2_codes"":[""P17"",""U18"",""U19"",""P20""]},{""set_index"":6,""original_numbers"":[21,22,23,24],""ordered_numbers"":[23,21,24,22],""order_type"":""shuffled"",""block1_codes"":[""P23"",""P21"",""P24"",""U22""],""block2_codes"":[""U23"",""U21"",""U24"",""P22""]},{""set_index"":7,""original_numbers"":[25,26,27,28],""ordered_numbers"":[25,26,27,28],""order_type"":""canonical"",""block1_codes"":[""P25"",""P26"",""P27"",""U28""],""block2_codes"":[""U25"",""U26"",""U27"",""P28""]},{""set_index"":8,""original_numbers"":[29,30,31,32],""ordered_numbers"":[29,30,31,32],""order_type"":""canonical"",""block1_codes"":[""P29"",""U30"",""P31"",""U32""],""block2_codes"":[""U29"",""P30"",""U31"",""P32""]}]","6001","5319","{""confidence_rating"":""Very confident""}","","","confidence_question","","","","","","","P6","6","1","5","","[0]","Very confident"
"","","","","","video-keyboard-response","27","2.0.0","704136","47","1","2026-04-03 16:21:31","1ae03887455d64a255e840e66d192191","149.248.12.250","Mozilla/5.0 (Windows NT 10.0; Win64; x64) AppleWebKit/537.36 (KHTML, like Gecko) Chrome/146.0.0.0 Safari/537.36","WebKit","Chrome","146.0.0.0","Windows","10.0","https://uencdihehs.cognition.run/","zh-CN,zh;q=0.9","32","[""U1"",""U2"",""U3"",""P4"",""P6"",""P5"",""P7"",""U8"",""P9"",""P10"",""U11"",""U12"",""P13"",""U14"",""U15"",""U16"",""U17"",""P18"",""P19"",""U20"",""P23"",""P21"",""P24"",""U22"",""P25"",""P26"",""P27"",""U28"",""P29"",""U30"",""P31"",""U32""]","[""P1"",""P2"",""P3"",""U4"",""U6"",""U5"",""U7"",""P8"",""U9"",""U10"",""P11"",""P12"",""U13"",""P14"",""P15"",""P16"",""P17"",""U18"",""U19"",""P20"",""U23"",""U21"",""U24"",""P22"",""U25"",""U26"",""U27"",""P28"",""U29"",""P30"",""U31"",""P32""]","[{""set_index"":1,""original_numbers"":[1,2,3,4],""ordered_numbers"":[1,2,3,4],""order_type"":""canonical"",""block1_codes"":[""U1"",""U2"",""U3"",""P4""],""block2_codes"":[""P1"",""P2"",""P3"",""U4""]},{""set_index"":2,""original_numbers"":[5,6,7,8],""ordered_numbers"":[6,5,7,8],""order_type"":""shuffled"",""block1_codes"":[""P6"",""P5"",""P7"",""U8""],""block2_codes"":[""U6"",""U5"",""U7"",""P8""]},{""set_index"":3,""original_numbers"":[9,10,11,12],""ordered_numbers"":[9,10,11,12],""order_type"":""canonical"",""block1_codes"":[""P9"",""P10"",""U11"",""U12""],""block2_codes"":[""U9"",""U10"",""P11"",""P12""]},{""set_index"":4,""original_numbers"":[13,14,15,16],""ordered_numbers"":[13,14,15,16],""order_type"":""canonical"",""block1_codes"":[""P13"",""U14"",""U15"",""U16""],""block2_codes"":[""U13"",""P14"",""P15"",""P16""]},{""set_index"":5,""original_numbers"":[17,18,19,20],""ordered_numbers"":[17,18,19,20],""order_type"":""canonical"",""block1_codes"":[""U17"",""P18"",""P19"",""U20""],""block2_codes"":[""P17"",""U18"",""U19"",""P20""]},{""set_index"":6,""original_numbers"":[21,22,23,24],""ordered_numbers"":[23,21,24,22],""order_type"":""shuffled"",""block1_codes"":[""P23"",""P21"",""P24"",""U22""],""block2_codes"":[""U23"",""U21"",""U24"",""P22""]},{""set_index"":7,""original_numbers"":[25,26,27,28],""ordered_numbers"":[25,26,27,28],""order_type"":""canonical"",""block1_codes"":[""P25"",""P26"",""P27"",""U28""],""block2_codes"":[""U25"",""U26"",""U27"",""P28""]},{""set_index"":8,""original_numbers"":[29,30,31,32],""ordered_numbers"":[29,30,31,32],""order_type"":""canonical"",""block1_codes"":[""P29"",""U30"",""P31"",""U32""],""block2_codes"":[""U29"",""P30"",""U31"",""P32""]}]","6001","null","null","","[""beach_v1.mp4""]","segmentation_video","","","beach_v1.mp4","[2.072616,5.069479,19.063691,25.94036]","4","","P5","5","1","6","false","",""
"","","","","","survey-multi-choice","28","2.0.0","708306","47","1","2026-04-03 16:21:31","1ae03887455d64a255e840e66d192191","149.248.12.250","Mozilla/5.0 (Windows NT 10.0; Win64; x64) AppleWebKit/537.36 (KHTML, like Gecko) Chrome/146.0.0.0 Safari/537.36","WebKit","Chrome","146.0.0.0","Windows","10.0","https://uencdihehs.cognition.run/","zh-CN,zh;q=0.9","32","[""U1"",""U2"",""U3"",""P4"",""P6"",""P5"",""P7"",""U8"",""P9"",""P10"",""U11"",""U12"",""P13"",""U14"",""U15"",""U16"",""U17"",""P18"",""P19"",""U20"",""P23"",""P21"",""P24"",""U22"",""P25"",""P26"",""P27"",""U28"",""P29"",""U30"",""P31"",""U32""]","[""P1"",""P2"",""P3"",""U4"",""U6"",""U5"",""U7"",""P8"",""U9"",""U10"",""P11"",""P12"",""U13"",""P14"",""P15"",""P16"",""P17"",""U18"",""U19"",""P20"",""U23"",""U21"",""U24"",""P22"",""U25"",""U26"",""U27"",""P28"",""U29"",""P30"",""U31"",""P32""]","[{""set_index"":1,""original_numbers"":[1,2,3,4],""ordered_numbers"":[1,2,3,4],""order_type"":""canonical"",""block1_codes"":[""U1"",""U2"",""U3"",""P4""],""block2_codes"":[""P1"",""P2"",""P3"",""U4""]},{""set_index"":2,""original_numbers"":[5,6,7,8],""ordered_numbers"":[6,5,7,8],""order_type"":""shuffled"",""block1_codes"":[""P6"",""P5"",""P7"",""U8""],""block2_codes"":[""U6"",""U5"",""U7"",""P8""]},{""set_index"":3,""original_numbers"":[9,10,11,12],""ordered_numbers"":[9,10,11,12],""order_type"":""canonical"",""block1_codes"":[""P9"",""P10"",""U11"",""U12""],""block2_codes"":[""U9"",""U10"",""P11"",""P12""]},{""set_index"":4,""original_numbers"":[13,14,15,16],""ordered_numbers"":[13,14,15,16],""order_type"":""canonical"",""block1_codes"":[""P13"",""U14"",""U15"",""U16""],""block2_codes"":[""U13"",""P14"",""P15"",""P16""]},{""set_index"":5,""original_numbers"":[17,18,19,20],""ordered_numbers"":[17,18,19,20],""order_type"":""canonical"",""block1_codes"":[""U17"",""P18"",""P19"",""U20""],""block2_codes"":[""P17"",""U18"",""U19"",""P20""]},{""set_index"":6,""original_numbers"":[21,22,23,24],""ordered_numbers"":[23,21,24,22],""order_type"":""shuffled"",""block1_codes"":[""P23"",""P21"",""P24"",""U22""],""block2_codes"":[""U23"",""U21"",""U24"",""P22""]},{""set_index"":7,""original_numbers"":[25,26,27,28],""ordered_numbers"":[25,26,27,28],""order_type"":""canonical"",""block1_codes"":[""P25"",""P26"",""P27"",""U28""],""block2_codes"":[""U25"",""U26"",""U27"",""P28""]},{""set_index"":8,""original_numbers"":[29,30,31,32],""ordered_numbers"":[29,30,31,32],""order_type"":""canonical"",""block1_codes"":[""P29"",""U30"",""P31"",""U32""],""block2_codes"":[""U29"",""P30"",""U31"",""P32""]}]","6001","4164","{""confidence_rating"":""Moderately confident""}","","","confidence_question","","","","","","","P5","5","1","6","","[0]","Moderately confident"
"","","","","","video-keyboard-response","29","2.0.0","737735","47","1","2026-04-03 16:21:31","1ae03887455d64a255e840e66d192191","149.248.12.250","Mozilla/5.0 (Windows NT 10.0; Win64; x64) AppleWebKit/537.36 (KHTML, like Gecko) Chrome/146.0.0.0 Safari/537.36","WebKit","Chrome","146.0.0.0","Windows","10.0","https://uencdihehs.cognition.run/","zh-CN,zh;q=0.9","32","[""U1"",""U2"",""U3"",""P4"",""P6"",""P5"",""P7"",""U8"",""P9"",""P10"",""U11"",""U12"",""P13"",""U14"",""U15"",""U16"",""U17"",""P18"",""P19"",""U20"",""P23"",""P21"",""P24"",""U22"",""P25"",""P26"",""P27"",""U28"",""P29"",""U30"",""P31"",""U32""]","[""P1"",""P2"",""P3"",""U4"",""U6"",""U5"",""U7"",""P8"",""U9"",""U10"",""P11"",""P12"",""U13"",""P14"",""P15"",""P16"",""P17"",""U18"",""U19"",""P20"",""U23"",""U21"",""U24"",""P22"",""U25"",""U26"",""U27"",""P28"",""U29"",""P30"",""U31"",""P32""]","[{""set_index"":1,""original_numbers"":[1,2,3,4],""ordered_numbers"":[1,2,3,4],""order_type"":""canonical"",""block1_codes"":[""U1"",""U2"",""U3"",""P4""],""block2_codes"":[""P1"",""P2"",""P3"",""U4""]},{""set_index"":2,""original_numbers"":[5,6,7,8],""ordered_numbers"":[6,5,7,8],""order_type"":""shuffled"",""block1_codes"":[""P6"",""P5"",""P7"",""U8""],""block2_codes"":[""U6"",""U5"",""U7"",""P8""]},{""set_index"":3,""original_numbers"":[9,10,11,12],""ordered_numbers"":[9,10,11,12],""order_type"":""canonical"",""block1_codes"":[""P9"",""P10"",""U11"",""U12""],""block2_codes"":[""U9"",""U10"",""P11"",""P12""]},{""set_index"":4,""original_numbers"":[13,14,15,16],""ordered_numbers"":[13,14,15,16],""order_type"":""canonical"",""block1_codes"":[""P13"",""U14"",""U15"",""U16""],""block2_codes"":[""U13"",""P14"",""P15"",""P16""]},{""set_index"":5,""original_numbers"":[17,18,19,20],""ordered_numbers"":[17,18,19,20],""order_type"":""canonical"",""block1_codes"":[""U17"",""P18"",""P19"",""U20""],""block2_codes"":[""P17"",""U18"",""U19"",""P20""]},{""set_index"":6,""original_numbers"":[21,22,23,24],""ordered_numbers"":[23,21,24,22],""order_type"":""shuffled"",""block1_codes"":[""P23"",""P21"",""P24"",""U22""],""block2_codes"":[""U23"",""U21"",""U24"",""P22""]},{""set_index"":7,""original_numbers"":[25,26,27,28],""ordered_numbers"":[25,26,27,28],""order_type"":""canonical"",""block1_codes"":[""P25"",""P26"",""P27"",""U28""],""block2_codes"":[""U25"",""U26"",""U27"",""P28""]},{""set_index"":8,""original_numbers"":[29,30,31,32],""ordered_numbers"":[29,30,31,32],""order_type"":""canonical"",""block1_codes"":[""P29"",""U30"",""P31"",""U32""],""block2_codes"":[""U29"",""P30"",""U31"",""P32""]}]","6001","null","null","","[""bike_v1.mp4""]","segmentation_video","","","bike_v1.mp4","[3.54577,8.190513,12.52105,16.769692,20.513273,28.842903]","6","","P7","7","1","7","false","",""
"","","","","","survey-multi-choice","30","2.0.0","741831","47","1","2026-04-03 16:21:31","1ae03887455d64a255e840e66d192191","149.248.12.250","Mozilla/5.0 (Windows NT 10.0; Win64; x64) AppleWebKit/537.36 (KHTML, like Gecko) Chrome/146.0.0.0 Safari/537.36","WebKit","Chrome","146.0.0.0","Windows","10.0","https://uencdihehs.cognition.run/","zh-CN,zh;q=0.9","32","[""U1"",""U2"",""U3"",""P4"",""P6"",""P5"",""P7"",""U8"",""P9"",""P10"",""U11"",""U12"",""P13"",""U14"",""U15"",""U16"",""U17"",""P18"",""P19"",""U20"",""P23"",""P21"",""P24"",""U22"",""P25"",""P26"",""P27"",""U28"",""P29"",""U30"",""P31"",""U32""]","[""P1"",""P2"",""P3"",""U4"",""U6"",""U5"",""U7"",""P8"",""U9"",""U10"",""P11"",""P12"",""U13"",""P14"",""P15"",""P16"",""P17"",""U18"",""U19"",""P20"",""U23"",""U21"",""U24"",""P22"",""U25"",""U26"",""U27"",""P28"",""U29"",""P30"",""U31"",""P32""]","[{""set_index"":1,""original_numbers"":[1,2,3,4],""ordered_numbers"":[1,2,3,4],""order_type"":""canonical"",""block1_codes"":[""U1"",""U2"",""U3"",""P4""],""block2_codes"":[""P1"",""P2"",""P3"",""U4""]},{""set_index"":2,""original_numbers"":[5,6,7,8],""ordered_numbers"":[6,5,7,8],""order_type"":""shuffled"",""block1_codes"":[""P6"",""P5"",""P7"",""U8""],""block2_codes"":[""U6"",""U5"",""U7"",""P8""]},{""set_index"":3,""original_numbers"":[9,10,11,12],""ordered_numbers"":[9,10,11,12],""order_type"":""canonical"",""block1_codes"":[""P9"",""P10"",""U11"",""U12""],""block2_codes"":[""U9"",""U10"",""P11"",""P12""]},{""set_index"":4,""original_numbers"":[13,14,15,16],""ordered_numbers"":[13,14,15,16],""order_type"":""canonical"",""block1_codes"":[""P13"",""U14"",""U15"",""U16""],""block2_codes"":[""U13"",""P14"",""P15"",""P16""]},{""set_index"":5,""original_numbers"":[17,18,19,20],""ordered_numbers"":[17,18,19,20],""order_type"":""canonical"",""block1_codes"":[""U17"",""P18"",""P19"",""U20""],""block2_codes"":[""P17"",""U18"",""U19"",""P20""]},{""set_index"":6,""original_numbers"":[21,22,23,24],""ordered_numbers"":[23,21,24,22],""order_type"":""shuffled"",""block1_codes"":[""P23"",""P21"",""P24"",""U22""],""block2_codes"":[""U23"",""U21"",""U24"",""P22""]},{""set_index"":7,""original_numbers"":[25,26,27,28],""ordered_numbers"":[25,26,27,28],""order_type"":""canonical"",""block1_codes"":[""P25"",""P26"",""P27"",""U28""],""block2_codes"":[""U25"",""U26"",""U27"",""P28""]},{""set_index"":8,""original_numbers"":[29,30,31,32],""ordered_numbers"":[29,30,31,32],""order_type"":""canonical"",""block1_codes"":[""P29"",""U30"",""P31"",""U32""],""block2_codes"":[""U29"",""P30"",""U31"",""P32""]}]","6001","4093","{""confidence_rating"":""Moderately confident""}","","","confidence_question","","","","","","","P7","7","1","7","","[0]","Moderately confident"
"","","","","","video-keyboard-response","31","2.0.0","781395","47","1","2026-04-03 16:21:31","1ae03887455d64a255e840e66d192191","149.248.12.250","Mozilla/5.0 (Windows NT 10.0; Win64; x64) AppleWebKit/537.36 (KHTML, like Gecko) Chrome/146.0.0.0 Safari/537.36","WebKit","Chrome","146.0.0.0","Windows","10.0","https://uencdihehs.cognition.run/","zh-CN,zh;q=0.9","32","[""U1"",""U2"",""U3"",""P4"",""P6"",""P5"",""P7"",""U8"",""P9"",""P10"",""U11"",""U12"",""P13"",""U14"",""U15"",""U16"",""U17"",""P18"",""P19"",""U20"",""P23"",""P21"",""P24"",""U22"",""P25"",""P26"",""P27"",""U28"",""P29"",""U30"",""P31"",""U32""]","[""P1"",""P2"",""P3"",""U4"",""U6"",""U5"",""U7"",""P8"",""U9"",""U10"",""P11"",""P12"",""U13"",""P14"",""P15"",""P16"",""P17"",""U18"",""U19"",""P20"",""U23"",""U21"",""U24"",""P22"",""U25"",""U26"",""U27"",""P28"",""U29"",""P30"",""U31"",""P32""]","[{""set_index"":1,""original_numbers"":[1,2,3,4],""ordered_numbers"":[1,2,3,4],""order_type"":""canonical"",""block1_codes"":[""U1"",""U2"",""U3"",""P4""],""block2_codes"":[""P1"",""P2"",""P3"",""U4""]},{""set_index"":2,""original_numbers"":[5,6,7,8],""ordered_numbers"":[6,5,7,8],""order_type"":""shuffled"",""block1_codes"":[""P6"",""P5"",""P7"",""U8""],""block2_codes"":[""U6"",""U5"",""U7"",""P8""]},{""set_index"":3,""original_numbers"":[9,10,11,12],""ordered_numbers"":[9,10,11,12],""order_type"":""canonical"",""block1_codes"":[""P9"",""P10"",""U11"",""U12""],""block2_codes"":[""U9"",""U10"",""P11"",""P12""]},{""set_index"":4,""original_numbers"":[13,14,15,16],""ordered_numbers"":[13,14,15,16],""order_type"":""canonical"",""block1_codes"":[""P13"",""U14"",""U15"",""U16""],""block2_codes"":[""U13"",""P14"",""P15"",""P16""]},{""set_index"":5,""original_numbers"":[17,18,19,20],""ordered_numbers"":[17,18,19,20],""order_type"":""canonical"",""block1_codes"":[""U17"",""P18"",""P19"",""U20""],""block2_codes"":[""P17"",""U18"",""U19"",""P20""]},{""set_index"":6,""original_numbers"":[21,22,23,24],""ordered_numbers"":[23,21,24,22],""order_type"":""shuffled"",""block1_codes"":[""P23"",""P21"",""P24"",""U22""],""block2_codes"":[""U23"",""U21"",""U24"",""P22""]},{""set_index"":7,""original_numbers"":[25,26,27,28],""ordered_numbers"":[25,26,27,28],""order_type"":""canonical"",""block1_codes"":[""P25"",""P26"",""P27"",""U28""],""block2_codes"":[""U25"",""U26"",""U27"",""P28""]},{""set_index"":8,""original_numbers"":[29,30,31,32],""ordered_numbers"":[29,30,31,32],""order_type"":""canonical"",""block1_codes"":[""P29"",""U30"",""P31"",""U32""],""block2_codes"":[""U29"",""P30"",""U31"",""P32""]}]","6001","null","null","","[""car_v2.mp4""]","segmentation_video","","","car_v2.mp4","[1.992887,9.376124,13.569619,17.862848,21.083356,29.85632,37.186937]","7","","U8","8","1","8","false","",""
"","","","","","survey-multi-choice","32","2.0.0","785162","47","1","2026-04-03 16:21:31","1ae03887455d64a255e840e66d192191","149.248.12.250","Mozilla/5.0 (Windows NT 10.0; Win64; x64) AppleWebKit/537.36 (KHTML, like Gecko) Chrome/146.0.0.0 Safari/537.36","WebKit","Chrome","146.0.0.0","Windows","10.0","https://uencdihehs.cognition.run/","zh-CN,zh;q=0.9","32","[""U1"",""U2"",""U3"",""P4"",""P6"",""P5"",""P7"",""U8"",""P9"",""P10"",""U11"",""U12"",""P13"",""U14"",""U15"",""U16"",""U17"",""P18"",""P19"",""U20"",""P23"",""P21"",""P24"",""U22"",""P25"",""P26"",""P27"",""U28"",""P29"",""U30"",""P31"",""U32""]","[""P1"",""P2"",""P3"",""U4"",""U6"",""U5"",""U7"",""P8"",""U9"",""U10"",""P11"",""P12"",""U13"",""P14"",""P15"",""P16"",""P17"",""U18"",""U19"",""P20"",""U23"",""U21"",""U24"",""P22"",""U25"",""U26"",""U27"",""P28"",""U29"",""P30"",""U31"",""P32""]","[{""set_index"":1,""original_numbers"":[1,2,3,4],""ordered_numbers"":[1,2,3,4],""order_type"":""canonical"",""block1_codes"":[""U1"",""U2"",""U3"",""P4""],""block2_codes"":[""P1"",""P2"",""P3"",""U4""]},{""set_index"":2,""original_numbers"":[5,6,7,8],""ordered_numbers"":[6,5,7,8],""order_type"":""shuffled"",""block1_codes"":[""P6"",""P5"",""P7"",""U8""],""block2_codes"":[""U6"",""U5"",""U7"",""P8""]},{""set_index"":3,""original_numbers"":[9,10,11,12],""ordered_numbers"":[9,10,11,12],""order_type"":""canonical"",""block1_codes"":[""P9"",""P10"",""U11"",""U12""],""block2_codes"":[""U9"",""U10"",""P11"",""P12""]},{""set_index"":4,""original_numbers"":[13,14,15,16],""ordered_numbers"":[13,14,15,16],""order_type"":""canonical"",""block1_codes"":[""P13"",""U14"",""U15"",""U16""],""block2_codes"":[""U13"",""P14"",""P15"",""P16""]},{""set_index"":5,""original_numbers"":[17,18,19,20],""ordered_numbers"":[17,18,19,20],""order_type"":""canonical"",""block1_codes"":[""U17"",""P18"",""P19"",""U20""],""block2_codes"":[""P17"",""U18"",""U19"",""P20""]},{""set_index"":6,""original_numbers"":[21,22,23,24],""ordered_numbers"":[23,21,24,22],""order_type"":""shuffled"",""block1_codes"":[""P23"",""P21"",""P24"",""U22""],""block2_codes"":[""U23"",""U21"",""U24"",""P22""]},{""set_index"":7,""original_numbers"":[25,26,27,28],""ordered_numbers"":[25,26,27,28],""order_type"":""canonical"",""block1_codes"":[""P25"",""P26"",""P27"",""U28""],""block2_codes"":[""U25"",""U26"",""U27"",""P28""]},{""set_index"":8,""original_numbers"":[29,30,31,32],""ordered_numbers"":[29,30,31,32],""order_type"":""canonical"",""block1_codes"":[""P29"",""U30"",""P31"",""U32""],""block2_codes"":[""U29"",""P30"",""U31"",""P32""]}]","6001","3763","{""confidence_rating"":""Moderately confident""}","","","confidence_question","","","","","","","U8","8","1","8","","[0]","Moderately confident"
"","","","","","video-keyboard-response","33","2.0.0","823034","47","1","2026-04-03 16:21:31","1ae03887455d64a255e840e66d192191","149.248.12.250","Mozilla/5.0 (Windows NT 10.0; Win64; x64) AppleWebKit/537.36 (KHTML, like Gecko) Chrome/146.0.0.0 Safari/537.36","WebKit","Chrome","146.0.0.0","Windows","10.0","https://uencdihehs.cognition.run/","zh-CN,zh;q=0.9","32","[""U1"",""U2"",""U3"",""P4"",""P6"",""P5"",""P7"",""U8"",""P9"",""P10"",""U11"",""U12"",""P13"",""U14"",""U15"",""U16"",""U17"",""P18"",""P19"",""U20"",""P23"",""P21"",""P24"",""U22"",""P25"",""P26"",""P27"",""U28"",""P29"",""U30"",""P31"",""U32""]","[""P1"",""P2"",""P3"",""U4"",""U6"",""U5"",""U7"",""P8"",""U9"",""U10"",""P11"",""P12"",""U13"",""P14"",""P15"",""P16"",""P17"",""U18"",""U19"",""P20"",""U23"",""U21"",""U24"",""P22"",""U25"",""U26"",""U27"",""P28"",""U29"",""P30"",""U31"",""P32""]","[{""set_index"":1,""original_numbers"":[1,2,3,4],""ordered_numbers"":[1,2,3,4],""order_type"":""canonical"",""block1_codes"":[""U1"",""U2"",""U3"",""P4""],""block2_codes"":[""P1"",""P2"",""P3"",""U4""]},{""set_index"":2,""original_numbers"":[5,6,7,8],""ordered_numbers"":[6,5,7,8],""order_type"":""shuffled"",""block1_codes"":[""P6"",""P5"",""P7"",""U8""],""block2_codes"":[""U6"",""U5"",""U7"",""P8""]},{""set_index"":3,""original_numbers"":[9,10,11,12],""ordered_numbers"":[9,10,11,12],""order_type"":""canonical"",""block1_codes"":[""P9"",""P10"",""U11"",""U12""],""block2_codes"":[""U9"",""U10"",""P11"",""P12""]},{""set_index"":4,""original_numbers"":[13,14,15,16],""ordered_numbers"":[13,14,15,16],""order_type"":""canonical"",""block1_codes"":[""P13"",""U14"",""U15"",""U16""],""block2_codes"":[""U13"",""P14"",""P15"",""P16""]},{""set_index"":5,""original_numbers"":[17,18,19,20],""ordered_numbers"":[17,18,19,20],""order_type"":""canonical"",""block1_codes"":[""U17"",""P18"",""P19"",""U20""],""block2_codes"":[""P17"",""U18"",""U19"",""P20""]},{""set_index"":6,""original_numbers"":[21,22,23,24],""ordered_numbers"":[23,21,24,22],""order_type"":""shuffled"",""block1_codes"":[""P23"",""P21"",""P24"",""U22""],""block2_codes"":[""U23"",""U21"",""U24"",""P22""]},{""set_index"":7,""original_numbers"":[25,26,27,28],""ordered_numbers"":[25,26,27,28],""order_type"":""canonical"",""block1_codes"":[""P25"",""P26"",""P27"",""U28""],""block2_codes"":[""U25"",""U26"",""U27"",""P28""]},{""set_index"":8,""original_numbers"":[29,30,31,32],""ordered_numbers"":[29,30,31,32],""order_type"":""canonical"",""block1_codes"":[""P29"",""U30"",""P31"",""U32""],""block2_codes"":[""U29"",""P30"",""U31"",""P32""]}]","6001","null","null","","[""cereal_v1.mp4""]","segmentation_video","","","cereal_v1.mp4","[2.774472,14.90321,23.048327,28.590209,31.982961,36.567222]","6","","P9","9","1","9","false","",""
"","","","","","survey-multi-choice","34","2.0.0","826986","47","1","2026-04-03 16:21:31","1ae03887455d64a255e840e66d192191","149.248.12.250","Mozilla/5.0 (Windows NT 10.0; Win64; x64) AppleWebKit/537.36 (KHTML, like Gecko) Chrome/146.0.0.0 Safari/537.36","WebKit","Chrome","146.0.0.0","Windows","10.0","https://uencdihehs.cognition.run/","zh-CN,zh;q=0.9","32","[""U1"",""U2"",""U3"",""P4"",""P6"",""P5"",""P7"",""U8"",""P9"",""P10"",""U11"",""U12"",""P13"",""U14"",""U15"",""U16"",""U17"",""P18"",""P19"",""U20"",""P23"",""P21"",""P24"",""U22"",""P25"",""P26"",""P27"",""U28"",""P29"",""U30"",""P31"",""U32""]","[""P1"",""P2"",""P3"",""U4"",""U6"",""U5"",""U7"",""P8"",""U9"",""U10"",""P11"",""P12"",""U13"",""P14"",""P15"",""P16"",""P17"",""U18"",""U19"",""P20"",""U23"",""U21"",""U24"",""P22"",""U25"",""U26"",""U27"",""P28"",""U29"",""P30"",""U31"",""P32""]","[{""set_index"":1,""original_numbers"":[1,2,3,4],""ordered_numbers"":[1,2,3,4],""order_type"":""canonical"",""block1_codes"":[""U1"",""U2"",""U3"",""P4""],""block2_codes"":[""P1"",""P2"",""P3"",""U4""]},{""set_index"":2,""original_numbers"":[5,6,7,8],""ordered_numbers"":[6,5,7,8],""order_type"":""shuffled"",""block1_codes"":[""P6"",""P5"",""P7"",""U8""],""block2_codes"":[""U6"",""U5"",""U7"",""P8""]},{""set_index"":3,""original_numbers"":[9,10,11,12],""ordered_numbers"":[9,10,11,12],""order_type"":""canonical"",""block1_codes"":[""P9"",""P10"",""U11"",""U12""],""block2_codes"":[""U9"",""U10"",""P11"",""P12""]},{""set_index"":4,""original_numbers"":[13,14,15,16],""ordered_numbers"":[13,14,15,16],""order_type"":""canonical"",""block1_codes"":[""P13"",""U14"",""U15"",""U16""],""block2_codes"":[""U13"",""P14"",""P15"",""P16""]},{""set_index"":5,""original_numbers"":[17,18,19,20],""ordered_numbers"":[17,18,19,20],""order_type"":""canonical"",""block1_codes"":[""U17"",""P18"",""P19"",""U20""],""block2_codes"":[""P17"",""U18"",""U19"",""P20""]},{""set_index"":6,""original_numbers"":[21,22,23,24],""ordered_numbers"":[23,21,24,22],""order_type"":""shuffled"",""block1_codes"":[""P23"",""P21"",""P24"",""U22""],""block2_codes"":[""U23"",""U21"",""U24"",""P22""]},{""set_index"":7,""original_numbers"":[25,26,27,28],""ordered_numbers"":[25,26,27,28],""order_type"":""canonical"",""block1_codes"":[""P25"",""P26"",""P27"",""U28""],""block2_codes"":[""U25"",""U26"",""U27"",""P28""]},{""set_index"":8,""original_numbers"":[29,30,31,32],""ordered_numbers"":[29,30,31,32],""order_type"":""canonical"",""block1_codes"":[""P29"",""U30"",""P31"",""U32""],""block2_codes"":[""U29"",""P30"",""U31"",""P32""]}]","6001","3949","{""confidence_rating"":""Very confident""}","","","confidence_question","","","","","","","P9","9","1","9","","[0]","Very confident"
