"success","timeout","failed_images","failed_audio","failed_video","trial_type","trial_index","plugin_version","time_elapsed","run_id","condition","recorded_at","source_code_version","ip","user_agent","device","browser","browser_version","platform","platform_version","referer","accept_language","PROLIFIC_PID","STUDY_ID","SESSION_ID","subject_id","study_id","session_id","pair_count","randomized_pair_order","block1_codes","block2_codes","max_run_block1","max_run_block2","fullscreen_exit_count","tab_switch_count","video_attention_failure_count","total_attention_violation_count","view_history","rt","stimulus","response","trial_kind","question_order","spacebar_question_answer","attention_question_answer","spacebar_question_correct","attention_question_correct","instruction_check_passed","demo_index","demo_code","stimulus_file","stimulus_name","predictability","boundary_times_sec","boundary_count","value","video_code","pair_number","block","global_position_in_block","min_press_gap_sec","no_press_failure","rapid_press_failure","video_attention_failed","video_attention_failure_type","last_video_had_any_attention_violation","current_video_fullscreen_exit_count","current_video_tab_switch_count","current_video_had_fullscreen_exit","current_video_had_tab_switch","current_video_had_video_attention_failure","skipped_video_debug","confidence_rating"
"true","false","[]","[]","[]","preload","0","2.0.0","8685","84","1","2026-06-08 18:48:05","segmentation_norming_randomized_order_maxrun_attention_v4","24.114.44.89","Mozilla/5.0 (Windows NT 10.0; Win64; x64) AppleWebKit/537.36 (KHTML, like Gecko) Chrome/149.0.0.0 Safari/537.36","WebKit","Chrome","149.0.0.0","Windows","10.0","https://uencdihehs.cognition.run/?PROLIFIC_PID=6a066c6047b51ed1445ac532&STUDY_ID=6a270c2e609d6ae583c06396&STUDY_ID=6a270c2e609d6ae583c06396&SESSION_ID=6a270dffb796fcc9d17ebdfd?PROLIFIC_PID=6a066c6047b51ed1445ac532&SESSION_ID=6a270dffb796fcc9d17ebdfd?","en-US,en;q=0.9","6a066c6047b51ed1445ac532","6a270c2e609d6ae583c06396","6a270dffb796fcc9d17ebdfd?","6a066c6047b51ed1445ac532","6a270c2e609d6ae583c06396","6a270dffb796fcc9d17ebdfd?","30","[19,22,26,14,17,8,18,5,4,21,15,13,25,3,6,28,11,16,20,7,29,10,30,2,12,24,27,1,23,9]","[""P19"",""U22"",""U26"",""U14"",""P17"",""P8"",""P18"",""U5"",""U4"",""P21"",""P15"",""U13"",""P25"",""P3"",""U6"",""P28"",""P11"",""P16"",""P20"",""U7"",""U29"",""P10"",""P30"",""P2"",""P12"",""U24"",""P27"",""P1"",""U23"",""U9""]","[""U19"",""P22"",""P26"",""P14"",""U17"",""U8"",""U18"",""P5"",""P4"",""U21"",""U15"",""P13"",""U25"",""U3"",""P6"",""U28"",""U11"",""U16"",""U20"",""P7"",""P29"",""U10"",""U30"",""U2"",""U12"",""P24"",""U27"",""U1"",""P23"",""P9""]","4","4","0","0","1","1","","","","","","","","","","","","","","","","","","","","","","","","","","","","","","","","","","","",""
"","","","","","instructions","1","2.0.0","15714","84","1","2026-06-08 18:48:05","segmentation_norming_randomized_order_maxrun_attention_v4","24.114.44.89","Mozilla/5.0 (Windows NT 10.0; Win64; x64) AppleWebKit/537.36 (KHTML, like Gecko) Chrome/149.0.0.0 Safari/537.36","WebKit","Chrome","149.0.0.0","Windows","10.0","https://uencdihehs.cognition.run/?PROLIFIC_PID=6a066c6047b51ed1445ac532&STUDY_ID=6a270c2e609d6ae583c06396&STUDY_ID=6a270c2e609d6ae583c06396&SESSION_ID=6a270dffb796fcc9d17ebdfd?PROLIFIC_PID=6a066c6047b51ed1445ac532&SESSION_ID=6a270dffb796fcc9d17ebdfd?","en-US,en;q=0.9","6a066c6047b51ed1445ac532","6a270c2e609d6ae583c06396","6a270dffb796fcc9d17ebdfd?","6a066c6047b51ed1445ac532","6a270c2e609d6ae583c06396","6a270dffb796fcc9d17ebdfd?","30","[19,22,26,14,17,8,18,5,4,21,15,13,25,3,6,28,11,16,20,7,29,10,30,2,12,24,27,1,23,9]","[""P19"",""U22"",""U26"",""U14"",""P17"",""P8"",""P18"",""U5"",""U4"",""P21"",""P15"",""U13"",""P25"",""P3"",""U6"",""P28"",""P11"",""P16"",""P20"",""U7"",""U29"",""P10"",""P30"",""P2"",""P12"",""U24"",""P27"",""P1"",""U23"",""U9""]","[""U19"",""P22"",""P26"",""P14"",""U17"",""U8"",""U18"",""P5"",""P4"",""U21"",""U15"",""P13"",""U25"",""U3"",""P6"",""U28"",""U11"",""U16"",""U20"",""P7"",""P29"",""U10"",""U30"",""U2"",""U12"",""P24"",""U27"",""U1"",""P23"",""P9""]","4","4","0","0","1","1","[{""page_index"":0,""viewing_time"":7029}]","7029","","","","","","","","","","","","","","","","","","","","","","","","","","","","","","","","","",""
"true","","","","","fullscreen","2","2.0.0","20086","84","1","2026-06-08 18:48:05","segmentation_norming_randomized_order_maxrun_attention_v4","24.114.44.89","Mozilla/5.0 (Windows NT 10.0; Win64; x64) AppleWebKit/537.36 (KHTML, like Gecko) Chrome/149.0.0.0 Safari/537.36","WebKit","Chrome","149.0.0.0","Windows","10.0","https://uencdihehs.cognition.run/?PROLIFIC_PID=6a066c6047b51ed1445ac532&STUDY_ID=6a270c2e609d6ae583c06396&STUDY_ID=6a270c2e609d6ae583c06396&SESSION_ID=6a270dffb796fcc9d17ebdfd?PROLIFIC_PID=6a066c6047b51ed1445ac532&SESSION_ID=6a270dffb796fcc9d17ebdfd?","en-US,en;q=0.9","6a066c6047b51ed1445ac532","6a270c2e609d6ae583c06396","6a270dffb796fcc9d17ebdfd?","6a066c6047b51ed1445ac532","6a270c2e609d6ae583c06396","6a270dffb796fcc9d17ebdfd?","30","[19,22,26,14,17,8,18,5,4,21,15,13,25,3,6,28,11,16,20,7,29,10,30,2,12,24,27,1,23,9]","[""P19"",""U22"",""U26"",""U14"",""P17"",""P8"",""P18"",""U5"",""U4"",""P21"",""P15"",""U13"",""P25"",""P3"",""U6"",""P28"",""P11"",""P16"",""P20"",""U7"",""U29"",""P10"",""P30"",""P2"",""P12"",""U24"",""P27"",""P1"",""U23"",""U9""]","[""U19"",""P22"",""P26"",""P14"",""U17"",""U8"",""U18"",""P5"",""P4"",""U21"",""U15"",""P13"",""U25"",""U3"",""P6"",""U28"",""U11"",""U16"",""U20"",""P7"",""P29"",""U10"",""U30"",""U2"",""U12"",""P24"",""U27"",""U1"",""P23"",""P9""]","4","4","0","0","1","1","","3369","","","","","","","","","","","","","","","","","","","","","","","","","","","","","","","","","",""
"","","","","","html-button-response","3","2.0.0","30540","84","1","2026-06-08 18:48:05","segmentation_norming_randomized_order_maxrun_attention_v4","24.114.44.89","Mozilla/5.0 (Windows NT 10.0; Win64; x64) AppleWebKit/537.36 (KHTML, like Gecko) Chrome/149.0.0.0 Safari/537.36","WebKit","Chrome","149.0.0.0","Windows","10.0","https://uencdihehs.cognition.run/?PROLIFIC_PID=6a066c6047b51ed1445ac532&STUDY_ID=6a270c2e609d6ae583c06396&STUDY_ID=6a270c2e609d6ae583c06396&SESSION_ID=6a270dffb796fcc9d17ebdfd?PROLIFIC_PID=6a066c6047b51ed1445ac532&SESSION_ID=6a270dffb796fcc9d17ebdfd?","en-US,en;q=0.9","6a066c6047b51ed1445ac532","6a270c2e609d6ae583c06396","6a270dffb796fcc9d17ebdfd?","6a066c6047b51ed1445ac532","6a270c2e609d6ae583c06396","6a270dffb796fcc9d17ebdfd?","30","[19,22,26,14,17,8,18,5,4,21,15,13,25,3,6,28,11,16,20,7,29,10,30,2,12,24,27,1,23,9]","[""P19"",""U22"",""U26"",""U14"",""P17"",""P8"",""P18"",""U5"",""U4"",""P21"",""P15"",""U13"",""P25"",""P3"",""U6"",""P28"",""P11"",""P16"",""P20"",""U7"",""U29"",""P10"",""P30"",""P2"",""P12"",""U24"",""P27"",""P1"",""U23"",""U9""]","[""U19"",""P22"",""P26"",""P14"",""U17"",""U8"",""U18"",""P5"",""P4"",""U21"",""U15"",""P13"",""U25"",""U3"",""P6"",""U28"",""U11"",""U16"",""U20"",""P7"",""P29"",""U10"",""U30"",""U2"",""U12"",""P24"",""U27"",""U1"",""P23"",""P9""]","4","4","0","0","1","1","","10452","The experiment requires continuous attention and full-screen participation throughout the task.<br><br>You may be asked to exit the experiment and cancel your participation if you exit Full Screen Mode, switch tabs, or fail to meet the attention criteria more than the allowed number of times.<br><br>Please read the following instructions carefully.","0","","","","","","","","","","","","","","","","","","","","","","","","","","","","","","","",""
"","","","","","instructions","4","2.0.0","56502","84","1","2026-06-08 18:48:05","segmentation_norming_randomized_order_maxrun_attention_v4","24.114.44.89","Mozilla/5.0 (Windows NT 10.0; Win64; x64) AppleWebKit/537.36 (KHTML, like Gecko) Chrome/149.0.0.0 Safari/537.36","WebKit","Chrome","149.0.0.0","Windows","10.0","https://uencdihehs.cognition.run/?PROLIFIC_PID=6a066c6047b51ed1445ac532&STUDY_ID=6a270c2e609d6ae583c06396&STUDY_ID=6a270c2e609d6ae583c06396&SESSION_ID=6a270dffb796fcc9d17ebdfd?PROLIFIC_PID=6a066c6047b51ed1445ac532&SESSION_ID=6a270dffb796fcc9d17ebdfd?","en-US,en;q=0.9","6a066c6047b51ed1445ac532","6a270c2e609d6ae583c06396","6a270dffb796fcc9d17ebdfd?","6a066c6047b51ed1445ac532","6a270c2e609d6ae583c06396","6a270dffb796fcc9d17ebdfd?","30","[19,22,26,14,17,8,18,5,4,21,15,13,25,3,6,28,11,16,20,7,29,10,30,2,12,24,27,1,23,9]","[""P19"",""U22"",""U26"",""U14"",""P17"",""P8"",""P18"",""U5"",""U4"",""P21"",""P15"",""U13"",""P25"",""P3"",""U6"",""P28"",""P11"",""P16"",""P20"",""U7"",""U29"",""P10"",""P30"",""P2"",""P12"",""U24"",""P27"",""P1"",""U23"",""U9""]","[""U19"",""P22"",""P26"",""P14"",""U17"",""U8"",""U18"",""P5"",""P4"",""U21"",""U15"",""P13"",""U25"",""U3"",""P6"",""U28"",""U11"",""U16"",""U20"",""P7"",""P29"",""U10"",""U30"",""U2"",""U12"",""P24"",""U27"",""U1"",""P23"",""P9""]","4","4","0","0","1","1","[{""page_index"":0,""viewing_time"":25960}]","25960","","","","","","","","","","","","","","","","","","","","","","","","","","","","","","","","","",""
"","","","","","html-button-response","5","2.0.0","64722","84","1","2026-06-08 18:48:05","segmentation_norming_randomized_order_maxrun_attention_v4","24.114.44.89","Mozilla/5.0 (Windows NT 10.0; Win64; x64) AppleWebKit/537.36 (KHTML, like Gecko) Chrome/149.0.0.0 Safari/537.36","WebKit","Chrome","149.0.0.0","Windows","10.0","https://uencdihehs.cognition.run/?PROLIFIC_PID=6a066c6047b51ed1445ac532&STUDY_ID=6a270c2e609d6ae583c06396&STUDY_ID=6a270c2e609d6ae583c06396&SESSION_ID=6a270dffb796fcc9d17ebdfd?PROLIFIC_PID=6a066c6047b51ed1445ac532&SESSION_ID=6a270dffb796fcc9d17ebdfd?","en-US,en;q=0.9","6a066c6047b51ed1445ac532","6a270c2e609d6ae583c06396","6a270dffb796fcc9d17ebdfd?","6a066c6047b51ed1445ac532","6a270c2e609d6ae583c06396","6a270dffb796fcc9d17ebdfd?","30","[19,22,26,14,17,8,18,5,4,21,15,13,25,3,6,28,11,16,20,7,29,10,30,2,12,24,27,1,23,9]","[""P19"",""U22"",""U26"",""U14"",""P17"",""P8"",""P18"",""U5"",""U4"",""P21"",""P15"",""U13"",""P25"",""P3"",""U6"",""P28"",""P11"",""P16"",""P20"",""U7"",""U29"",""P10"",""P30"",""P2"",""P12"",""U24"",""P27"",""P1"",""U23"",""U9""]","[""U19"",""P22"",""P26"",""P14"",""U17"",""U8"",""U18"",""P5"",""P4"",""U21"",""U15"",""P13"",""U25"",""U3"",""P6"",""U28"",""U11"",""U16"",""U20"",""P7"",""P29"",""U10"",""U30"",""U2"",""U12"",""P24"",""U27"",""U1"",""P23"",""P9""]","4","4","0","0","1","1","","8217","Please pay attention when watching videos and marking boundaries.<br><br>There are several hidden attention criteria to make sure you watch the videos carefully.<br><br>If you fail these hidden criteria more than the allowed number of times, you may be asked to exit the experiment.","0","","","","","","","","","","","","","","","","","","","","","","","","","","","","","","","",""
"","","","","","survey-multi-choice","6","2.0.0","90031","84","1","2026-06-08 18:48:05","segmentation_norming_randomized_order_maxrun_attention_v4","24.114.44.89","Mozilla/5.0 (Windows NT 10.0; Win64; x64) AppleWebKit/537.36 (KHTML, like Gecko) Chrome/149.0.0.0 Safari/537.36","WebKit","Chrome","149.0.0.0","Windows","10.0","https://uencdihehs.cognition.run/?PROLIFIC_PID=6a066c6047b51ed1445ac532&STUDY_ID=6a270c2e609d6ae583c06396&STUDY_ID=6a270c2e609d6ae583c06396&SESSION_ID=6a270dffb796fcc9d17ebdfd?PROLIFIC_PID=6a066c6047b51ed1445ac532&SESSION_ID=6a270dffb796fcc9d17ebdfd?","en-US,en;q=0.9","6a066c6047b51ed1445ac532","6a270c2e609d6ae583c06396","6a270dffb796fcc9d17ebdfd?","6a066c6047b51ed1445ac532","6a270c2e609d6ae583c06396","6a270dffb796fcc9d17ebdfd?","30","[19,22,26,14,17,8,18,5,4,21,15,13,25,3,6,28,11,16,20,7,29,10,30,2,12,24,27,1,23,9]","[""P19"",""U22"",""U26"",""U14"",""P17"",""P8"",""P18"",""U5"",""U4"",""P21"",""P15"",""U13"",""P25"",""P3"",""U6"",""P28"",""P11"",""P16"",""P20"",""U7"",""U29"",""P10"",""P30"",""P2"",""P12"",""U24"",""P27"",""P1"",""U23"",""U9""]","[""U19"",""P22"",""P26"",""P14"",""U17"",""U8"",""U18"",""P5"",""P4"",""U21"",""U15"",""P13"",""U25"",""U3"",""P6"",""U28"",""U11"",""U16"",""U20"",""P7"",""P29"",""U10"",""U30"",""U2"",""U12"",""P24"",""U27"",""U1"",""P23"",""P9""]","4","4","0","0","1","1","","25305","","{""spacebar_question"":""Between the smallest meaningful events or actions"",""attention_question"":""Press space bar to segment the video""}","comprehension_check","[0,1]","Between the smallest meaningful events or actions","Press space bar to segment the video","true","true","true","","","","","","","","","","","","","","","","","","","","","","","","",""
"","","","","","html-button-response","8","2.0.0","106503","84","1","2026-06-08 18:48:05","segmentation_norming_randomized_order_maxrun_attention_v4","24.114.44.89","Mozilla/5.0 (Windows NT 10.0; Win64; x64) AppleWebKit/537.36 (KHTML, like Gecko) Chrome/149.0.0.0 Safari/537.36","WebKit","Chrome","149.0.0.0","Windows","10.0","https://uencdihehs.cognition.run/?PROLIFIC_PID=6a066c6047b51ed1445ac532&STUDY_ID=6a270c2e609d6ae583c06396&STUDY_ID=6a270c2e609d6ae583c06396&SESSION_ID=6a270dffb796fcc9d17ebdfd?PROLIFIC_PID=6a066c6047b51ed1445ac532&SESSION_ID=6a270dffb796fcc9d17ebdfd?","en-US,en;q=0.9","6a066c6047b51ed1445ac532","6a270c2e609d6ae583c06396","6a270dffb796fcc9d17ebdfd?","6a066c6047b51ed1445ac532","6a270c2e609d6ae583c06396","6a270dffb796fcc9d17ebdfd?","30","[19,22,26,14,17,8,18,5,4,21,15,13,25,3,6,28,11,16,20,7,29,10,30,2,12,24,27,1,23,9]","[""P19"",""U22"",""U26"",""U14"",""P17"",""P8"",""P18"",""U5"",""U4"",""P21"",""P15"",""U13"",""P25"",""P3"",""U6"",""P28"",""P11"",""P16"",""P20"",""U7"",""U29"",""P10"",""P30"",""P2"",""P12"",""U24"",""P27"",""P1"",""U23"",""U9""]","[""U19"",""P22"",""P26"",""P14"",""U17"",""U8"",""U18"",""P5"",""P4"",""U21"",""U15"",""P13"",""U25"",""U3"",""P6"",""U28"",""U11"",""U16"",""U20"",""P7"",""P29"",""U10"",""U30"",""U2"",""U12"",""P24"",""U27"",""U1"",""P23"",""P9""]","4","4","0","0","1","1","","16469","You have learned the instructions for the task! Here is a demo trial.<br><br>Like what you will do in the main experiment,<br><br> you will watch a movie clip and at the same time mark off the activity in the movie into the <strong>smallest meaningful units</strong> that seem natural and meaningful to you.<br><br>Remember, tap the <strong>SPACE BAR</strong> to mark off a boundary between two <strong>smallest meaningful units</strong> of activity.<br><br>A green bar will appear at the bottom of the screen when you press the button.<br><br>","0","","","","","","","","","","","","","","","","","","","","","","","","","","","","","","","",""
"","","","","","video-keyboard-response","9","2.0.0","123252","84","1","2026-06-08 18:48:05","segmentation_norming_randomized_order_maxrun_attention_v4","24.114.44.89","Mozilla/5.0 (Windows NT 10.0; Win64; x64) AppleWebKit/537.36 (KHTML, like Gecko) Chrome/149.0.0.0 Safari/537.36","WebKit","Chrome","149.0.0.0","Windows","10.0","https://uencdihehs.cognition.run/?PROLIFIC_PID=6a066c6047b51ed1445ac532&STUDY_ID=6a270c2e609d6ae583c06396&STUDY_ID=6a270c2e609d6ae583c06396&SESSION_ID=6a270dffb796fcc9d17ebdfd?PROLIFIC_PID=6a066c6047b51ed1445ac532&SESSION_ID=6a270dffb796fcc9d17ebdfd?","en-US,en;q=0.9","6a066c6047b51ed1445ac532","6a270c2e609d6ae583c06396","6a270dffb796fcc9d17ebdfd?","6a066c6047b51ed1445ac532","6a270c2e609d6ae583c06396","6a270dffb796fcc9d17ebdfd?","30","[19,22,26,14,17,8,18,5,4,21,15,13,25,3,6,28,11,16,20,7,29,10,30,2,12,24,27,1,23,9]","[""P19"",""U22"",""U26"",""U14"",""P17"",""P8"",""P18"",""U5"",""U4"",""P21"",""P15"",""U13"",""P25"",""P3"",""U6"",""P28"",""P11"",""P16"",""P20"",""U7"",""U29"",""P10"",""P30"",""P2"",""P12"",""U24"",""P27"",""P1"",""U23"",""U9""]","[""U19"",""P22"",""P26"",""P14"",""U17"",""U8"",""U18"",""P5"",""P4"",""U21"",""U15"",""P13"",""U25"",""U3"",""P6"",""U28"",""U11"",""U16"",""U20"",""P7"",""P29"",""U10"",""U30"",""U2"",""U12"",""P24"",""U27"",""U1"",""P23"",""P9""]","4","4","0","0","1","1","","null","[""library_v1.mp4""]","null","demo_video","","","","","","","1","demo1","library_v1.mp4","library","Demo","[2.530655,4.150998,5.751454,7.610942,10.654085,13.12146,14.261131,15.282963,15.940448]","9","","","","","","","","","","","","","","","","","",""
"","","","","","call-function","10","2.0.0","123254","84","1","2026-06-08 18:48:05","segmentation_norming_randomized_order_maxrun_attention_v4","24.114.44.89","Mozilla/5.0 (Windows NT 10.0; Win64; x64) AppleWebKit/537.36 (KHTML, like Gecko) Chrome/149.0.0.0 Safari/537.36","WebKit","Chrome","149.0.0.0","Windows","10.0","https://uencdihehs.cognition.run/?PROLIFIC_PID=6a066c6047b51ed1445ac532&STUDY_ID=6a270c2e609d6ae583c06396&STUDY_ID=6a270c2e609d6ae583c06396&SESSION_ID=6a270dffb796fcc9d17ebdfd?PROLIFIC_PID=6a066c6047b51ed1445ac532&SESSION_ID=6a270dffb796fcc9d17ebdfd?","en-US,en;q=0.9","6a066c6047b51ed1445ac532","6a270c2e609d6ae583c06396","6a270dffb796fcc9d17ebdfd?","6a066c6047b51ed1445ac532","6a270c2e609d6ae583c06396","6a270dffb796fcc9d17ebdfd?","30","[19,22,26,14,17,8,18,5,4,21,15,13,25,3,6,28,11,16,20,7,29,10,30,2,12,24,27,1,23,9]","[""P19"",""U22"",""U26"",""U14"",""P17"",""P8"",""P18"",""U5"",""U4"",""P21"",""P15"",""U13"",""P25"",""P3"",""U6"",""P28"",""P11"",""P16"",""P20"",""U7"",""U29"",""P10"",""P30"",""P2"",""P12"",""U24"",""P27"",""P1"",""U23"",""U9""]","[""U19"",""P22"",""P26"",""P14"",""U17"",""U8"",""U18"",""P5"",""P4"",""U21"",""U15"",""P13"",""U25"",""U3"",""P6"",""U28"",""U11"",""U16"",""U20"",""P7"",""P29"",""U10"",""U30"",""U2"",""U12"",""P24"",""U27"",""U1"",""P23"",""P9""]","4","4","0","0","1","1","","","","","","","","","","","","","","","","","","","","","","","","","","","","","","","","","","","",""
"","","","","","html-button-response","11","2.0.0","130230","84","1","2026-06-08 18:48:05","segmentation_norming_randomized_order_maxrun_attention_v4","24.114.44.89","Mozilla/5.0 (Windows NT 10.0; Win64; x64) AppleWebKit/537.36 (KHTML, like Gecko) Chrome/149.0.0.0 Safari/537.36","WebKit","Chrome","149.0.0.0","Windows","10.0","https://uencdihehs.cognition.run/?PROLIFIC_PID=6a066c6047b51ed1445ac532&STUDY_ID=6a270c2e609d6ae583c06396&STUDY_ID=6a270c2e609d6ae583c06396&SESSION_ID=6a270dffb796fcc9d17ebdfd?PROLIFIC_PID=6a066c6047b51ed1445ac532&SESSION_ID=6a270dffb796fcc9d17ebdfd?","en-US,en;q=0.9","6a066c6047b51ed1445ac532","6a270c2e609d6ae583c06396","6a270dffb796fcc9d17ebdfd?","6a066c6047b51ed1445ac532","6a270c2e609d6ae583c06396","6a270dffb796fcc9d17ebdfd?","30","[19,22,26,14,17,8,18,5,4,21,15,13,25,3,6,28,11,16,20,7,29,10,30,2,12,24,27,1,23,9]","[""P19"",""U22"",""U26"",""U14"",""P17"",""P8"",""P18"",""U5"",""U4"",""P21"",""P15"",""U13"",""P25"",""P3"",""U6"",""P28"",""P11"",""P16"",""P20"",""U7"",""U29"",""P10"",""P30"",""P2"",""P12"",""U24"",""P27"",""P1"",""U23"",""U9""]","[""U19"",""P22"",""P26"",""P14"",""U17"",""U8"",""U18"",""P5"",""P4"",""U21"",""U15"",""P13"",""U25"",""U3"",""P6"",""U28"",""U11"",""U16"",""U20"",""P7"",""P29"",""U10"",""U30"",""U2"",""U12"",""P24"",""U27"",""U1"",""P23"",""P9""]","4","4","0","0","1","1","","6974","Great! Hopefully you got an idea of what a meaningful unit is.<br><br>Remember that there is no right or wrong answer.<br><br>We just want to know which parts of the activity seem natural and meaningful to you.<br><br>Now the main experiment starts.<br><br>For each clip, while watching, remember to press the SPACE BAR whenever one <strong>smallest meaningful unit</strong> of activity ends and another begins.<br><br>","0","demo_feedback","","","","","","","","","","","","","","","","","","","","","","","","","","","","","","",""
"true","false","[]","[]","[]","preload","12","2.0.0","234930","84","1","2026-06-08 18:48:05","segmentation_norming_randomized_order_maxrun_attention_v4","24.114.44.89","Mozilla/5.0 (Windows NT 10.0; Win64; x64) AppleWebKit/537.36 (KHTML, like Gecko) Chrome/149.0.0.0 Safari/537.36","WebKit","Chrome","149.0.0.0","Windows","10.0","https://uencdihehs.cognition.run/?PROLIFIC_PID=6a066c6047b51ed1445ac532&STUDY_ID=6a270c2e609d6ae583c06396&STUDY_ID=6a270c2e609d6ae583c06396&SESSION_ID=6a270dffb796fcc9d17ebdfd?PROLIFIC_PID=6a066c6047b51ed1445ac532&SESSION_ID=6a270dffb796fcc9d17ebdfd?","en-US,en;q=0.9","6a066c6047b51ed1445ac532","6a270c2e609d6ae583c06396","6a270dffb796fcc9d17ebdfd?","6a066c6047b51ed1445ac532","6a270c2e609d6ae583c06396","6a270dffb796fcc9d17ebdfd?","30","[19,22,26,14,17,8,18,5,4,21,15,13,25,3,6,28,11,16,20,7,29,10,30,2,12,24,27,1,23,9]","[""P19"",""U22"",""U26"",""U14"",""P17"",""P8"",""P18"",""U5"",""U4"",""P21"",""P15"",""U13"",""P25"",""P3"",""U6"",""P28"",""P11"",""P16"",""P20"",""U7"",""U29"",""P10"",""P30"",""P2"",""P12"",""U24"",""P27"",""P1"",""U23"",""U9""]","[""U19"",""P22"",""P26"",""P14"",""U17"",""U8"",""U18"",""P5"",""P4"",""U21"",""U15"",""P13"",""U25"",""U3"",""P6"",""U28"",""U11"",""U16"",""U20"",""P7"",""P29"",""U10"",""U30"",""U2"",""U12"",""P24"",""U27"",""U1"",""P23"",""P9""]","4","4","0","0","1","1","","","","","","","","","","","","","","","","","","","","","","","","","","","","","","","","","","","",""
"","","","","","video-keyboard-response","13","2.0.0","270657","84","1","2026-06-08 18:48:05","segmentation_norming_randomized_order_maxrun_attention_v4","24.114.44.89","Mozilla/5.0 (Windows NT 10.0; Win64; x64) AppleWebKit/537.36 (KHTML, like Gecko) Chrome/149.0.0.0 Safari/537.36","WebKit","Chrome","149.0.0.0","Windows","10.0","https://uencdihehs.cognition.run/?PROLIFIC_PID=6a066c6047b51ed1445ac532&STUDY_ID=6a270c2e609d6ae583c06396&STUDY_ID=6a270c2e609d6ae583c06396&SESSION_ID=6a270dffb796fcc9d17ebdfd?PROLIFIC_PID=6a066c6047b51ed1445ac532&SESSION_ID=6a270dffb796fcc9d17ebdfd?","en-US,en;q=0.9","6a066c6047b51ed1445ac532","6a270c2e609d6ae583c06396","6a270dffb796fcc9d17ebdfd?","6a066c6047b51ed1445ac532","6a270c2e609d6ae583c06396","6a270dffb796fcc9d17ebdfd?","30","[19,22,26,14,17,8,18,5,4,21,15,13,25,3,6,28,11,16,20,7,29,10,30,2,12,24,27,1,23,9]","[""P19"",""U22"",""U26"",""U14"",""P17"",""P8"",""P18"",""U5"",""U4"",""P21"",""P15"",""U13"",""P25"",""P3"",""U6"",""P28"",""P11"",""P16"",""P20"",""U7"",""U29"",""P10"",""P30"",""P2"",""P12"",""U24"",""P27"",""P1"",""U23"",""U9""]","[""U19"",""P22"",""P26"",""P14"",""U17"",""U8"",""U18"",""P5"",""P4"",""U21"",""U15"",""P13"",""U25"",""U3"",""P6"",""U28"",""U11"",""U16"",""U20"",""P7"",""P29"",""U10"",""U30"",""U2"",""U12"",""P24"",""U27"",""U1"",""P23"",""P9""]","4","4","0","0","1","1","","null","[""party_v1.mp4""]","null","segmentation_video","","","","","","","","","party_v1.mp4","party","Predictable","[2.619519,6.269127,9.437407,12.261147,17.841518,22.489695,26.218623,28.148659,31.064578,34.64259]","10","","P19","19","1","1","1.9300359999999976","false","false","false","","false","0","0","false","false","false","false",""
"","","","","","survey-multi-choice","16","2.0.0","276320","84","1","2026-06-08 18:48:05","segmentation_norming_randomized_order_maxrun_attention_v4","24.114.44.89","Mozilla/5.0 (Windows NT 10.0; Win64; x64) AppleWebKit/537.36 (KHTML, like Gecko) Chrome/149.0.0.0 Safari/537.36","WebKit","Chrome","149.0.0.0","Windows","10.0","https://uencdihehs.cognition.run/?PROLIFIC_PID=6a066c6047b51ed1445ac532&STUDY_ID=6a270c2e609d6ae583c06396&STUDY_ID=6a270c2e609d6ae583c06396&SESSION_ID=6a270dffb796fcc9d17ebdfd?PROLIFIC_PID=6a066c6047b51ed1445ac532&SESSION_ID=6a270dffb796fcc9d17ebdfd?","en-US,en;q=0.9","6a066c6047b51ed1445ac532","6a270c2e609d6ae583c06396","6a270dffb796fcc9d17ebdfd?","6a066c6047b51ed1445ac532","6a270c2e609d6ae583c06396","6a270dffb796fcc9d17ebdfd?","30","[19,22,26,14,17,8,18,5,4,21,15,13,25,3,6,28,11,16,20,7,29,10,30,2,12,24,27,1,23,9]","[""P19"",""U22"",""U26"",""U14"",""P17"",""P8"",""P18"",""U5"",""U4"",""P21"",""P15"",""U13"",""P25"",""P3"",""U6"",""P28"",""P11"",""P16"",""P20"",""U7"",""U29"",""P10"",""P30"",""P2"",""P12"",""U24"",""P27"",""P1"",""U23"",""U9""]","[""U19"",""P22"",""P26"",""P14"",""U17"",""U8"",""U18"",""P5"",""P4"",""U21"",""U15"",""P13"",""U25"",""U3"",""P6"",""U28"",""U11"",""U16"",""U20"",""P7"",""P29"",""U10"",""U30"",""U2"",""U12"",""P24"",""U27"",""U1"",""P23"",""P9""]","4","4","0","0","1","1","","5659","","{""confidence_rating"":""Very confident""}","confidence_question","[0]","","","","","","","","","party","Predictable","","","","P19","19","1","1","","","","","","","","","","","","","Very confident"
"","","","","","video-keyboard-response","17","2.0.0","295556","84","1","2026-06-08 18:48:05","segmentation_norming_randomized_order_maxrun_attention_v4","24.114.44.89","Mozilla/5.0 (Windows NT 10.0; Win64; x64) AppleWebKit/537.36 (KHTML, like Gecko) Chrome/149.0.0.0 Safari/537.36","WebKit","Chrome","149.0.0.0","Windows","10.0","https://uencdihehs.cognition.run/?PROLIFIC_PID=6a066c6047b51ed1445ac532&STUDY_ID=6a270c2e609d6ae583c06396&STUDY_ID=6a270c2e609d6ae583c06396&SESSION_ID=6a270dffb796fcc9d17ebdfd?PROLIFIC_PID=6a066c6047b51ed1445ac532&SESSION_ID=6a270dffb796fcc9d17ebdfd?","en-US,en;q=0.9","6a066c6047b51ed1445ac532","6a270c2e609d6ae583c06396","6a270dffb796fcc9d17ebdfd?","6a066c6047b51ed1445ac532","6a270c2e609d6ae583c06396","6a270dffb796fcc9d17ebdfd?","30","[19,22,26,14,17,8,18,5,4,21,15,13,25,3,6,28,11,16,20,7,29,10,30,2,12,24,27,1,23,9]","[""P19"",""U22"",""U26"",""U14"",""P17"",""P8"",""P18"",""U5"",""U4"",""P21"",""P15"",""U13"",""P25"",""P3"",""U6"",""P28"",""P11"",""P16"",""P20"",""U7"",""U29"",""P10"",""P30"",""P2"",""P12"",""U24"",""P27"",""P1"",""U23"",""U9""]","[""U19"",""P22"",""P26"",""P14"",""U17"",""U8"",""U18"",""P5"",""P4"",""U21"",""U15"",""P13"",""U25"",""U3"",""P6"",""U28"",""U11"",""U16"",""U20"",""P7"",""P29"",""U10"",""U30"",""U2"",""U12"",""P24"",""U27"",""U1"",""P23"",""P9""]","4","4","0","0","1","1","","null","[""record_v2.mp4""]","null","segmentation_video","","","","","","","","","record_v2.mp4","record","Unpredictable","[6.298958,9.656753,15.444024,17.449954]","4","","U22","22","1","2","2.005930000000001","false","false","false","","false","0","0","false","false","false","false",""
"","","","","","survey-multi-choice","20","2.0.0","299679","84","1","2026-06-08 18:48:05","segmentation_norming_randomized_order_maxrun_attention_v4","24.114.44.89","Mozilla/5.0 (Windows NT 10.0; Win64; x64) AppleWebKit/537.36 (KHTML, like Gecko) Chrome/149.0.0.0 Safari/537.36","WebKit","Chrome","149.0.0.0","Windows","10.0","https://uencdihehs.cognition.run/?PROLIFIC_PID=6a066c6047b51ed1445ac532&STUDY_ID=6a270c2e609d6ae583c06396&STUDY_ID=6a270c2e609d6ae583c06396&SESSION_ID=6a270dffb796fcc9d17ebdfd?PROLIFIC_PID=6a066c6047b51ed1445ac532&SESSION_ID=6a270dffb796fcc9d17ebdfd?","en-US,en;q=0.9","6a066c6047b51ed1445ac532","6a270c2e609d6ae583c06396","6a270dffb796fcc9d17ebdfd?","6a066c6047b51ed1445ac532","6a270c2e609d6ae583c06396","6a270dffb796fcc9d17ebdfd?","30","[19,22,26,14,17,8,18,5,4,21,15,13,25,3,6,28,11,16,20,7,29,10,30,2,12,24,27,1,23,9]","[""P19"",""U22"",""U26"",""U14"",""P17"",""P8"",""P18"",""U5"",""U4"",""P21"",""P15"",""U13"",""P25"",""P3"",""U6"",""P28"",""P11"",""P16"",""P20"",""U7"",""U29"",""P10"",""P30"",""P2"",""P12"",""U24"",""P27"",""P1"",""U23"",""U9""]","[""U19"",""P22"",""P26"",""P14"",""U17"",""U8"",""U18"",""P5"",""P4"",""U21"",""U15"",""P13"",""U25"",""U3"",""P6"",""U28"",""U11"",""U16"",""U20"",""P7"",""P29"",""U10"",""U30"",""U2"",""U12"",""P24"",""U27"",""U1"",""P23"",""P9""]","4","4","0","0","1","1","","4120","","{""confidence_rating"":""Very confident""}","confidence_question","[0]","","","","","","","","","record","Unpredictable","","","","U22","22","1","2","","","","","","","","","","","","","Very confident"
"","","","","","video-keyboard-response","21","2.0.0","339937","84","1","2026-06-08 18:48:05","segmentation_norming_randomized_order_maxrun_attention_v4","24.114.44.89","Mozilla/5.0 (Windows NT 10.0; Win64; x64) AppleWebKit/537.36 (KHTML, like Gecko) Chrome/149.0.0.0 Safari/537.36","WebKit","Chrome","149.0.0.0","Windows","10.0","https://uencdihehs.cognition.run/?PROLIFIC_PID=6a066c6047b51ed1445ac532&STUDY_ID=6a270c2e609d6ae583c06396&STUDY_ID=6a270c2e609d6ae583c06396&SESSION_ID=6a270dffb796fcc9d17ebdfd?PROLIFIC_PID=6a066c6047b51ed1445ac532&SESSION_ID=6a270dffb796fcc9d17ebdfd?","en-US,en;q=0.9","6a066c6047b51ed1445ac532","6a270c2e609d6ae583c06396","6a270dffb796fcc9d17ebdfd?","6a066c6047b51ed1445ac532","6a270c2e609d6ae583c06396","6a270dffb796fcc9d17ebdfd?","30","[19,22,26,14,17,8,18,5,4,21,15,13,25,3,6,28,11,16,20,7,29,10,30,2,12,24,27,1,23,9]","[""P19"",""U22"",""U26"",""U14"",""P17"",""P8"",""P18"",""U5"",""U4"",""P21"",""P15"",""U13"",""P25"",""P3"",""U6"",""P28"",""P11"",""P16"",""P20"",""U7"",""U29"",""P10"",""P30"",""P2"",""P12"",""U24"",""P27"",""P1"",""U23"",""U9""]","[""U19"",""P22"",""P26"",""P14"",""U17"",""U8"",""U18"",""P5"",""P4"",""U21"",""U15"",""P13"",""U25"",""U3"",""P6"",""U28"",""U11"",""U16"",""U20"",""P7"",""P29"",""U10"",""U30"",""U2"",""U12"",""P24"",""U27"",""U1"",""P23"",""P9""]","4","4","0","0","1","1","","null","[""sunbathing_v2.mp4""]","null","segmentation_video","","","","","","","","","sunbathing_v2.mp4","sunbathing","Unpredictable","[3.91851,5.788229,8.639063,11.004308,13.872025,16.987477,21.070261,24.461842,32.075823,34.335709,37.076968]","11","","U26","26","1","3","1.8697190000000004","false","false","false","","false","0","0","false","false","false","false",""
"","","","","","survey-multi-choice","24","2.0.0","343904","84","1","2026-06-08 18:48:05","segmentation_norming_randomized_order_maxrun_attention_v4","24.114.44.89","Mozilla/5.0 (Windows NT 10.0; Win64; x64) AppleWebKit/537.36 (KHTML, like Gecko) Chrome/149.0.0.0 Safari/537.36","WebKit","Chrome","149.0.0.0","Windows","10.0","https://uencdihehs.cognition.run/?PROLIFIC_PID=6a066c6047b51ed1445ac532&STUDY_ID=6a270c2e609d6ae583c06396&STUDY_ID=6a270c2e609d6ae583c06396&SESSION_ID=6a270dffb796fcc9d17ebdfd?PROLIFIC_PID=6a066c6047b51ed1445ac532&SESSION_ID=6a270dffb796fcc9d17ebdfd?","en-US,en;q=0.9","6a066c6047b51ed1445ac532","6a270c2e609d6ae583c06396","6a270dffb796fcc9d17ebdfd?","6a066c6047b51ed1445ac532","6a270c2e609d6ae583c06396","6a270dffb796fcc9d17ebdfd?","30","[19,22,26,14,17,8,18,5,4,21,15,13,25,3,6,28,11,16,20,7,29,10,30,2,12,24,27,1,23,9]","[""P19"",""U22"",""U26"",""U14"",""P17"",""P8"",""P18"",""U5"",""U4"",""P21"",""P15"",""U13"",""P25"",""P3"",""U6"",""P28"",""P11"",""P16"",""P20"",""U7"",""U29"",""P10"",""P30"",""P2"",""P12"",""U24"",""P27"",""P1"",""U23"",""U9""]","[""U19"",""P22"",""P26"",""P14"",""U17"",""U8"",""U18"",""P5"",""P4"",""U21"",""U15"",""P13"",""U25"",""U3"",""P6"",""U28"",""U11"",""U16"",""U20"",""P7"",""P29"",""U10"",""U30"",""U2"",""U12"",""P24"",""U27"",""U1"",""P23"",""P9""]","4","4","0","0","1","1","","3964","","{""confidence_rating"":""Very confident""}","confidence_question","[0]","","","","","","","","","sunbathing","Unpredictable","","","","U26","26","1","3","","","","","","","","","","","","","Very confident"
"","","","","","video-keyboard-response","25","2.0.0","373555","84","1","2026-06-08 18:48:05","segmentation_norming_randomized_order_maxrun_attention_v4","24.114.44.89","Mozilla/5.0 (Windows NT 10.0; Win64; x64) AppleWebKit/537.36 (KHTML, like Gecko) Chrome/149.0.0.0 Safari/537.36","WebKit","Chrome","149.0.0.0","Windows","10.0","https://uencdihehs.cognition.run/?PROLIFIC_PID=6a066c6047b51ed1445ac532&STUDY_ID=6a270c2e609d6ae583c06396&STUDY_ID=6a270c2e609d6ae583c06396&SESSION_ID=6a270dffb796fcc9d17ebdfd?PROLIFIC_PID=6a066c6047b51ed1445ac532&SESSION_ID=6a270dffb796fcc9d17ebdfd?","en-US,en;q=0.9","6a066c6047b51ed1445ac532","6a270c2e609d6ae583c06396","6a270dffb796fcc9d17ebdfd?","6a066c6047b51ed1445ac532","6a270c2e609d6ae583c06396","6a270dffb796fcc9d17ebdfd?","30","[19,22,26,14,17,8,18,5,4,21,15,13,25,3,6,28,11,16,20,7,29,10,30,2,12,24,27,1,23,9]","[""P19"",""U22"",""U26"",""U14"",""P17"",""P8"",""P18"",""U5"",""U4"",""P21"",""P15"",""U13"",""P25"",""P3"",""U6"",""P28"",""P11"",""P16"",""P20"",""U7"",""U29"",""P10"",""P30"",""P2"",""P12"",""U24"",""P27"",""P1"",""U23"",""U9""]","[""U19"",""P22"",""P26"",""P14"",""U17"",""U8"",""U18"",""P5"",""P4"",""U21"",""U15"",""P13"",""U25"",""U3"",""P6"",""U28"",""U11"",""U16"",""U20"",""P7"",""P29"",""U10"",""U30"",""U2"",""U12"",""P24"",""U27"",""U1"",""P23"",""P9""]","4","4","0","0","1","1","","null","[""lamp_v2.mp4""]","null","segmentation_video","","","","","","","","","lamp_v2.mp4","lamp","Unpredictable","[6.450391,10.925994,15.158741,22.186619,25.272576,29.302867]","6","","U14","14","1","4","3.0859570000000005","false","false","false","","false","0","0","false","false","false","false",""
"","","","","","survey-multi-choice","28","2.0.0","377319","84","1","2026-06-08 18:48:05","segmentation_norming_randomized_order_maxrun_attention_v4","24.114.44.89","Mozilla/5.0 (Windows NT 10.0; Win64; x64) AppleWebKit/537.36 (KHTML, like Gecko) Chrome/149.0.0.0 Safari/537.36","WebKit","Chrome","149.0.0.0","Windows","10.0","https://uencdihehs.cognition.run/?PROLIFIC_PID=6a066c6047b51ed1445ac532&STUDY_ID=6a270c2e609d6ae583c06396&STUDY_ID=6a270c2e609d6ae583c06396&SESSION_ID=6a270dffb796fcc9d17ebdfd?PROLIFIC_PID=6a066c6047b51ed1445ac532&SESSION_ID=6a270dffb796fcc9d17ebdfd?","en-US,en;q=0.9","6a066c6047b51ed1445ac532","6a270c2e609d6ae583c06396","6a270dffb796fcc9d17ebdfd?","6a066c6047b51ed1445ac532","6a270c2e609d6ae583c06396","6a270dffb796fcc9d17ebdfd?","30","[19,22,26,14,17,8,18,5,4,21,15,13,25,3,6,28,11,16,20,7,29,10,30,2,12,24,27,1,23,9]","[""P19"",""U22"",""U26"",""U14"",""P17"",""P8"",""P18"",""U5"",""U4"",""P21"",""P15"",""U13"",""P25"",""P3"",""U6"",""P28"",""P11"",""P16"",""P20"",""U7"",""U29"",""P10"",""P30"",""P2"",""P12"",""U24"",""P27"",""P1"",""U23"",""U9""]","[""U19"",""P22"",""P26"",""P14"",""U17"",""U8"",""U18"",""P5"",""P4"",""U21"",""U15"",""P13"",""U25"",""U3"",""P6"",""U28"",""U11"",""U16"",""U20"",""P7"",""P29"",""U10"",""U30"",""U2"",""U12"",""P24"",""U27"",""U1"",""P23"",""P9""]","4","4","0","0","1","1","","3760","","{""confidence_rating"":""Very confident""}","confidence_question","[0]","","","","","","","","","lamp","Unpredictable","","","","U14","14","1","4","","","","","","","","","","","","","Very confident"
"","","","","","video-keyboard-response","29","2.0.0","415555","84","1","2026-06-08 18:48:05","segmentation_norming_randomized_order_maxrun_attention_v4","24.114.44.89","Mozilla/5.0 (Windows NT 10.0; Win64; x64) AppleWebKit/537.36 (KHTML, like Gecko) Chrome/149.0.0.0 Safari/537.36","WebKit","Chrome","149.0.0.0","Windows","10.0","https://uencdihehs.cognition.run/?PROLIFIC_PID=6a066c6047b51ed1445ac532&STUDY_ID=6a270c2e609d6ae583c06396&STUDY_ID=6a270c2e609d6ae583c06396&SESSION_ID=6a270dffb796fcc9d17ebdfd?PROLIFIC_PID=6a066c6047b51ed1445ac532&SESSION_ID=6a270dffb796fcc9d17ebdfd?","en-US,en;q=0.9","6a066c6047b51ed1445ac532","6a270c2e609d6ae583c06396","6a270dffb796fcc9d17ebdfd?","6a066c6047b51ed1445ac532","6a270c2e609d6ae583c06396","6a270dffb796fcc9d17ebdfd?","30","[19,22,26,14,17,8,18,5,4,21,15,13,25,3,6,28,11,16,20,7,29,10,30,2,12,24,27,1,23,9]","[""P19"",""U22"",""U26"",""U14"",""P17"",""P8"",""P18"",""U5"",""U4"",""P21"",""P15"",""U13"",""P25"",""P3"",""U6"",""P28"",""P11"",""P16"",""P20"",""U7"",""U29"",""P10"",""P30"",""P2"",""P12"",""U24"",""P27"",""P1"",""U23"",""U9""]","[""U19"",""P22"",""P26"",""P14"",""U17"",""U8"",""U18"",""P5"",""P4"",""U21"",""U15"",""P13"",""U25"",""U3"",""P6"",""U28"",""U11"",""U16"",""U20"",""P7"",""P29"",""U10"",""U30"",""U2"",""U12"",""P24"",""U27"",""U1"",""P23"",""P9""]","4","4","0","0","1","1","","null","[""music_v1.mp4""]","null","segmentation_video","","","","","","","","","music_v1.mp4","music","Predictable","[2.821426,11.045974,17.497885,20.83186,22.42608,25.331828,27.887537,31.56374,34.477876,37.435133]","10","","P17","17","1","5","1.59422","false","false","false","","false","0","0","false","false","false","false",""
"","","","","","survey-multi-choice","32","2.0.0","420204","84","1","2026-06-08 18:48:05","segmentation_norming_randomized_order_maxrun_attention_v4","24.114.44.89","Mozilla/5.0 (Windows NT 10.0; Win64; x64) AppleWebKit/537.36 (KHTML, like Gecko) Chrome/149.0.0.0 Safari/537.36","WebKit","Chrome","149.0.0.0","Windows","10.0","https://uencdihehs.cognition.run/?PROLIFIC_PID=6a066c6047b51ed1445ac532&STUDY_ID=6a270c2e609d6ae583c06396&STUDY_ID=6a270c2e609d6ae583c06396&SESSION_ID=6a270dffb796fcc9d17ebdfd?PROLIFIC_PID=6a066c6047b51ed1445ac532&SESSION_ID=6a270dffb796fcc9d17ebdfd?","en-US,en;q=0.9","6a066c6047b51ed1445ac532","6a270c2e609d6ae583c06396","6a270dffb796fcc9d17ebdfd?","6a066c6047b51ed1445ac532","6a270c2e609d6ae583c06396","6a270dffb796fcc9d17ebdfd?","30","[19,22,26,14,17,8,18,5,4,21,15,13,25,3,6,28,11,16,20,7,29,10,30,2,12,24,27,1,23,9]","[""P19"",""U22"",""U26"",""U14"",""P17"",""P8"",""P18"",""U5"",""U4"",""P21"",""P15"",""U13"",""P25"",""P3"",""U6"",""P28"",""P11"",""P16"",""P20"",""U7"",""U29"",""P10"",""P30"",""P2"",""P12"",""U24"",""P27"",""P1"",""U23"",""U9""]","[""U19"",""P22"",""P26"",""P14"",""U17"",""U8"",""U18"",""P5"",""P4"",""U21"",""U15"",""P13"",""U25"",""U3"",""P6"",""U28"",""U11"",""U16"",""U20"",""P7"",""P29"",""U10"",""U30"",""U2"",""U12"",""P24"",""U27"",""U1"",""P23"",""P9""]","4","4","0","0","1","1","","4647","","{""confidence_rating"":""Very confident""}","confidence_question","[0]","","","","","","","","","music","Predictable","","","","P17","17","1","5","","","","","","","","","","","","","Very confident"
"","","","","","video-keyboard-response","33","2.0.0","459775","84","1","2026-06-08 18:48:05","segmentation_norming_randomized_order_maxrun_attention_v4","24.114.44.89","Mozilla/5.0 (Windows NT 10.0; Win64; x64) AppleWebKit/537.36 (KHTML, like Gecko) Chrome/149.0.0.0 Safari/537.36","WebKit","Chrome","149.0.0.0","Windows","10.0","https://uencdihehs.cognition.run/?PROLIFIC_PID=6a066c6047b51ed1445ac532&STUDY_ID=6a270c2e609d6ae583c06396&STUDY_ID=6a270c2e609d6ae583c06396&SESSION_ID=6a270dffb796fcc9d17ebdfd?PROLIFIC_PID=6a066c6047b51ed1445ac532&SESSION_ID=6a270dffb796fcc9d17ebdfd?","en-US,en;q=0.9","6a066c6047b51ed1445ac532","6a270c2e609d6ae583c06396","6a270dffb796fcc9d17ebdfd?","6a066c6047b51ed1445ac532","6a270c2e609d6ae583c06396","6a270dffb796fcc9d17ebdfd?","30","[19,22,26,14,17,8,18,5,4,21,15,13,25,3,6,28,11,16,20,7,29,10,30,2,12,24,27,1,23,9]","[""P19"",""U22"",""U26"",""U14"",""P17"",""P8"",""P18"",""U5"",""U4"",""P21"",""P15"",""U13"",""P25"",""P3"",""U6"",""P28"",""P11"",""P16"",""P20"",""U7"",""U29"",""P10"",""P30"",""P2"",""P12"",""U24"",""P27"",""P1"",""U23"",""U9""]","[""U19"",""P22"",""P26"",""P14"",""U17"",""U8"",""U18"",""P5"",""P4"",""U21"",""U15"",""P13"",""U25"",""U3"",""P6"",""U28"",""U11"",""U16"",""U20"",""P7"",""P29"",""U10"",""U30"",""U2"",""U12"",""P24"",""U27"",""U1"",""P23"",""P9""]","4","4","0","0","1","1","","null","[""car_v1.mp4""]","null","segmentation_video","","","","","","","","","car_v1.mp4","car","Predictable","[2.785792,5.091422,7.91741,11.085829,14.696174,17.922263,21.025166,22.38921,27.87968,32.265767,35.010973,37.861785]","12","","P8","8","1","6","1.3640439999999998","false","false","false","","false","0","0","false","false","false","false",""
"","","","","","survey-multi-choice","36","2.0.0","463869","84","1","2026-06-08 18:48:05","segmentation_norming_randomized_order_maxrun_attention_v4","24.114.44.89","Mozilla/5.0 (Windows NT 10.0; Win64; x64) AppleWebKit/537.36 (KHTML, like Gecko) Chrome/149.0.0.0 Safari/537.36","WebKit","Chrome","149.0.0.0","Windows","10.0","https://uencdihehs.cognition.run/?PROLIFIC_PID=6a066c6047b51ed1445ac532&STUDY_ID=6a270c2e609d6ae583c06396&STUDY_ID=6a270c2e609d6ae583c06396&SESSION_ID=6a270dffb796fcc9d17ebdfd?PROLIFIC_PID=6a066c6047b51ed1445ac532&SESSION_ID=6a270dffb796fcc9d17ebdfd?","en-US,en;q=0.9","6a066c6047b51ed1445ac532","6a270c2e609d6ae583c06396","6a270dffb796fcc9d17ebdfd?","6a066c6047b51ed1445ac532","6a270c2e609d6ae583c06396","6a270dffb796fcc9d17ebdfd?","30","[19,22,26,14,17,8,18,5,4,21,15,13,25,3,6,28,11,16,20,7,29,10,30,2,12,24,27,1,23,9]","[""P19"",""U22"",""U26"",""U14"",""P17"",""P8"",""P18"",""U5"",""U4"",""P21"",""P15"",""U13"",""P25"",""P3"",""U6"",""P28"",""P11"",""P16"",""P20"",""U7"",""U29"",""P10"",""P30"",""P2"",""P12"",""U24"",""P27"",""P1"",""U23"",""U9""]","[""U19"",""P22"",""P26"",""P14"",""U17"",""U8"",""U18"",""P5"",""P4"",""U21"",""U15"",""P13"",""U25"",""U3"",""P6"",""U28"",""U11"",""U16"",""U20"",""P7"",""P29"",""U10"",""U30"",""U2"",""U12"",""P24"",""U27"",""U1"",""P23"",""P9""]","4","4","0","0","1","1","","4090","","{""confidence_rating"":""Very confident""}","confidence_question","[0]","","","","","","","","","car","Predictable","","","","P8","8","1","6","","","","","","","","","","","","","Very confident"
"","","","","","video-keyboard-response","37","2.0.0","488555","84","1","2026-06-08 18:48:05","segmentation_norming_randomized_order_maxrun_attention_v4","24.114.44.89","Mozilla/5.0 (Windows NT 10.0; Win64; x64) AppleWebKit/537.36 (KHTML, like Gecko) Chrome/149.0.0.0 Safari/537.36","WebKit","Chrome","149.0.0.0","Windows","10.0","https://uencdihehs.cognition.run/?PROLIFIC_PID=6a066c6047b51ed1445ac532&STUDY_ID=6a270c2e609d6ae583c06396&STUDY_ID=6a270c2e609d6ae583c06396&SESSION_ID=6a270dffb796fcc9d17ebdfd?PROLIFIC_PID=6a066c6047b51ed1445ac532&SESSION_ID=6a270dffb796fcc9d17ebdfd?","en-US,en;q=0.9","6a066c6047b51ed1445ac532","6a270c2e609d6ae583c06396","6a270dffb796fcc9d17ebdfd?","6a066c6047b51ed1445ac532","6a270c2e609d6ae583c06396","6a270dffb796fcc9d17ebdfd?","30","[19,22,26,14,17,8,18,5,4,21,15,13,25,3,6,28,11,16,20,7,29,10,30,2,12,24,27,1,23,9]","[""P19"",""U22"",""U26"",""U14"",""P17"",""P8"",""P18"",""U5"",""U4"",""P21"",""P15"",""U13"",""P25"",""P3"",""U6"",""P28"",""P11"",""P16"",""P20"",""U7"",""U29"",""P10"",""P30"",""P2"",""P12"",""U24"",""P27"",""P1"",""U23"",""U9""]","[""U19"",""P22"",""P26"",""P14"",""U17"",""U8"",""U18"",""P5"",""P4"",""U21"",""U15"",""P13"",""U25"",""U3"",""P6"",""U28"",""U11"",""U16"",""U20"",""P7"",""P29"",""U10"",""U30"",""U2"",""U12"",""P24"",""U27"",""U1"",""P23"",""P9""]","4","4","0","0","1","1","","null","[""painting_v1.mp4""]","null","segmentation_video","","","","","","","","","painting_v1.mp4","painting","Predictable","[4.112105,9.913745,15.70307,18.865006,21.919278,24.057326]","6","","P18","18","1","7","2.1380480000000013","false","false","false","","false","0","0","false","false","false","false",""
"","","","","","survey-multi-choice","40","2.0.0","492627","84","1","2026-06-08 18:48:05","segmentation_norming_randomized_order_maxrun_attention_v4","24.114.44.89","Mozilla/5.0 (Windows NT 10.0; Win64; x64) AppleWebKit/537.36 (KHTML, like Gecko) Chrome/149.0.0.0 Safari/537.36","WebKit","Chrome","149.0.0.0","Windows","10.0","https://uencdihehs.cognition.run/?PROLIFIC_PID=6a066c6047b51ed1445ac532&STUDY_ID=6a270c2e609d6ae583c06396&STUDY_ID=6a270c2e609d6ae583c06396&SESSION_ID=6a270dffb796fcc9d17ebdfd?PROLIFIC_PID=6a066c6047b51ed1445ac532&SESSION_ID=6a270dffb796fcc9d17ebdfd?","en-US,en;q=0.9","6a066c6047b51ed1445ac532","6a270c2e609d6ae583c06396","6a270dffb796fcc9d17ebdfd?","6a066c6047b51ed1445ac532","6a270c2e609d6ae583c06396","6a270dffb796fcc9d17ebdfd?","30","[19,22,26,14,17,8,18,5,4,21,15,13,25,3,6,28,11,16,20,7,29,10,30,2,12,24,27,1,23,9]","[""P19"",""U22"",""U26"",""U14"",""P17"",""P8"",""P18"",""U5"",""U4"",""P21"",""P15"",""U13"",""P25"",""P3"",""U6"",""P28"",""P11"",""P16"",""P20"",""U7"",""U29"",""P10"",""P30"",""P2"",""P12"",""U24"",""P27"",""P1"",""U23"",""U9""]","[""U19"",""P22"",""P26"",""P14"",""U17"",""U8"",""U18"",""P5"",""P4"",""U21"",""U15"",""P13"",""U25"",""U3"",""P6"",""U28"",""U11"",""U16"",""U20"",""P7"",""P29"",""U10"",""U30"",""U2"",""U12"",""P24"",""U27"",""U1"",""P23"",""P9""]","4","4","0","0","1","1","","4070","","{""confidence_rating"":""Very confident""}","confidence_question","[0]","","","","","","","","","painting","Predictable","","","","P18","18","1","7","","","","","","","","","","","","","Very confident"
"","","","","","video-keyboard-response","41","2.0.0","519496","84","1","2026-06-08 18:48:05","segmentation_norming_randomized_order_maxrun_attention_v4","24.114.44.89","Mozilla/5.0 (Windows NT 10.0; Win64; x64) AppleWebKit/537.36 (KHTML, like Gecko) Chrome/149.0.0.0 Safari/537.36","WebKit","Chrome","149.0.0.0","Windows","10.0","https://uencdihehs.cognition.run/?PROLIFIC_PID=6a066c6047b51ed1445ac532&STUDY_ID=6a270c2e609d6ae583c06396&STUDY_ID=6a270c2e609d6ae583c06396&SESSION_ID=6a270dffb796fcc9d17ebdfd?PROLIFIC_PID=6a066c6047b51ed1445ac532&SESSION_ID=6a270dffb796fcc9d17ebdfd?","en-US,en;q=0.9","6a066c6047b51ed1445ac532","6a270c2e609d6ae583c06396","6a270dffb796fcc9d17ebdfd?","6a066c6047b51ed1445ac532","6a270c2e609d6ae583c06396","6a270dffb796fcc9d17ebdfd?","30","[19,22,26,14,17,8,18,5,4,21,15,13,25,3,6,28,11,16,20,7,29,10,30,2,12,24,27,1,23,9]","[""P19"",""U22"",""U26"",""U14"",""P17"",""P8"",""P18"",""U5"",""U4"",""P21"",""P15"",""U13"",""P25"",""P3"",""U6"",""P28"",""P11"",""P16"",""P20"",""U7"",""U29"",""P10"",""P30"",""P2"",""P12"",""U24"",""P27"",""P1"",""U23"",""U9""]","[""U19"",""P22"",""P26"",""P14"",""U17"",""U8"",""U18"",""P5"",""P4"",""U21"",""U15"",""P13"",""U25"",""U3"",""P6"",""U28"",""U11"",""U16"",""U20"",""P7"",""P29"",""U10"",""U30"",""U2"",""U12"",""P24"",""U27"",""U1"",""P23"",""P9""]","4","4","0","0","1","1","","null","[""beach_v2.mp4""]","null","segmentation_video","","","","","","","","","beach_v2.mp4","beach","Unpredictable","[1.831139,4.357705,8.457546,11.779465,13.6186,15.2371,18.355869,20.15034,22.195406,24.813069]","10","","U5","5","1","8","1.6184999999999992","false","false","false","","false","0","0","false","false","false","false",""
"","","","","","survey-multi-choice","44","2.0.0","524416","84","1","2026-06-08 18:48:05","segmentation_norming_randomized_order_maxrun_attention_v4","24.114.44.89","Mozilla/5.0 (Windows NT 10.0; Win64; x64) AppleWebKit/537.36 (KHTML, like Gecko) Chrome/149.0.0.0 Safari/537.36","WebKit","Chrome","149.0.0.0","Windows","10.0","https://uencdihehs.cognition.run/?PROLIFIC_PID=6a066c6047b51ed1445ac532&STUDY_ID=6a270c2e609d6ae583c06396&STUDY_ID=6a270c2e609d6ae583c06396&SESSION_ID=6a270dffb796fcc9d17ebdfd?PROLIFIC_PID=6a066c6047b51ed1445ac532&SESSION_ID=6a270dffb796fcc9d17ebdfd?","en-US,en;q=0.9","6a066c6047b51ed1445ac532","6a270c2e609d6ae583c06396","6a270dffb796fcc9d17ebdfd?","6a066c6047b51ed1445ac532","6a270c2e609d6ae583c06396","6a270dffb796fcc9d17ebdfd?","30","[19,22,26,14,17,8,18,5,4,21,15,13,25,3,6,28,11,16,20,7,29,10,30,2,12,24,27,1,23,9]","[""P19"",""U22"",""U26"",""U14"",""P17"",""P8"",""P18"",""U5"",""U4"",""P21"",""P15"",""U13"",""P25"",""P3"",""U6"",""P28"",""P11"",""P16"",""P20"",""U7"",""U29"",""P10"",""P30"",""P2"",""P12"",""U24"",""P27"",""P1"",""U23"",""U9""]","[""U19"",""P22"",""P26"",""P14"",""U17"",""U8"",""U18"",""P5"",""P4"",""U21"",""U15"",""P13"",""U25"",""U3"",""P6"",""U28"",""U11"",""U16"",""U20"",""P7"",""P29"",""U10"",""U30"",""U2"",""U12"",""P24"",""U27"",""U1"",""P23"",""P9""]","4","4","0","0","1","1","","4916","","{""confidence_rating"":""Very confident""}","confidence_question","[0]","","","","","","","","","beach","Unpredictable","","","","U5","5","1","8","","","","","","","","","","","","","Very confident"
"","","","","","video-keyboard-response","45","2.0.0","559655","84","1","2026-06-08 18:48:05","segmentation_norming_randomized_order_maxrun_attention_v4","24.114.44.89","Mozilla/5.0 (Windows NT 10.0; Win64; x64) AppleWebKit/537.36 (KHTML, like Gecko) Chrome/149.0.0.0 Safari/537.36","WebKit","Chrome","149.0.0.0","Windows","10.0","https://uencdihehs.cognition.run/?PROLIFIC_PID=6a066c6047b51ed1445ac532&STUDY_ID=6a270c2e609d6ae583c06396&STUDY_ID=6a270c2e609d6ae583c06396&SESSION_ID=6a270dffb796fcc9d17ebdfd?PROLIFIC_PID=6a066c6047b51ed1445ac532&SESSION_ID=6a270dffb796fcc9d17ebdfd?","en-US,en;q=0.9","6a066c6047b51ed1445ac532","6a270c2e609d6ae583c06396","6a270dffb796fcc9d17ebdfd?","6a066c6047b51ed1445ac532","6a270c2e609d6ae583c06396","6a270dffb796fcc9d17ebdfd?","30","[19,22,26,14,17,8,18,5,4,21,15,13,25,3,6,28,11,16,20,7,29,10,30,2,12,24,27,1,23,9]","[""P19"",""U22"",""U26"",""U14"",""P17"",""P8"",""P18"",""U5"",""U4"",""P21"",""P15"",""U13"",""P25"",""P3"",""U6"",""P28"",""P11"",""P16"",""P20"",""U7"",""U29"",""P10"",""P30"",""P2"",""P12"",""U24"",""P27"",""P1"",""U23"",""U9""]","[""U19"",""P22"",""P26"",""P14"",""U17"",""U8"",""U18"",""P5"",""P4"",""U21"",""U15"",""P13"",""U25"",""U3"",""P6"",""U28"",""U11"",""U16"",""U20"",""P7"",""P29"",""U10"",""U30"",""U2"",""U12"",""P24"",""U27"",""U1"",""P23"",""P9""]","4","4","0","0","1","1","","null","[""bathroom_v2.mp4""]","null","segmentation_video","","","","","","","","","bathroom_v2.mp4","bathroom","Unpredictable","[2.678305,4.877308,7.97442,12.672281,16.325142,17.672976,19.867896,21.365959,22.967969,25.028649,27.122558,29.643394,33.482042]","13","","U4","4","1","9","1.3478339999999989","false","false","false","","false","0","0","false","false","false","false",""
"","","","","","survey-multi-choice","48","2.0.0","563940","84","1","2026-06-08 18:48:05","segmentation_norming_randomized_order_maxrun_attention_v4","24.114.44.89","Mozilla/5.0 (Windows NT 10.0; Win64; x64) AppleWebKit/537.36 (KHTML, like Gecko) Chrome/149.0.0.0 Safari/537.36","WebKit","Chrome","149.0.0.0","Windows","10.0","https://uencdihehs.cognition.run/?PROLIFIC_PID=6a066c6047b51ed1445ac532&STUDY_ID=6a270c2e609d6ae583c06396&STUDY_ID=6a270c2e609d6ae583c06396&SESSION_ID=6a270dffb796fcc9d17ebdfd?PROLIFIC_PID=6a066c6047b51ed1445ac532&SESSION_ID=6a270dffb796fcc9d17ebdfd?","en-US,en;q=0.9","6a066c6047b51ed1445ac532","6a270c2e609d6ae583c06396","6a270dffb796fcc9d17ebdfd?","6a066c6047b51ed1445ac532","6a270c2e609d6ae583c06396","6a270dffb796fcc9d17ebdfd?","30","[19,22,26,14,17,8,18,5,4,21,15,13,25,3,6,28,11,16,20,7,29,10,30,2,12,24,27,1,23,9]","[""P19"",""U22"",""U26"",""U14"",""P17"",""P8"",""P18"",""U5"",""U4"",""P21"",""P15"",""U13"",""P25"",""P3"",""U6"",""P28"",""P11"",""P16"",""P20"",""U7"",""U29"",""P10"",""P30"",""P2"",""P12"",""U24"",""P27"",""P1"",""U23"",""U9""]","[""U19"",""P22"",""P26"",""P14"",""U17"",""U8"",""U18"",""P5"",""P4"",""U21"",""U15"",""P13"",""U25"",""U3"",""P6"",""U28"",""U11"",""U16"",""U20"",""P7"",""P29"",""U10"",""U30"",""U2"",""U12"",""P24"",""U27"",""U1"",""P23"",""P9""]","4","4","0","0","1","1","","4282","","{""confidence_rating"":""Very confident""}","confidence_question","[0]","","","","","","","","","bathroom","Unpredictable","","","","U4","4","1","9","","","","","","","","","","","","","Very confident"
"","","","","","video-keyboard-response","49","2.0.0","608115","84","1","2026-06-08 18:48:05","segmentation_norming_randomized_order_maxrun_attention_v4","24.114.44.89","Mozilla/5.0 (Windows NT 10.0; Win64; x64) AppleWebKit/537.36 (KHTML, like Gecko) Chrome/149.0.0.0 Safari/537.36","WebKit","Chrome","149.0.0.0","Windows","10.0","https://uencdihehs.cognition.run/?PROLIFIC_PID=6a066c6047b51ed1445ac532&STUDY_ID=6a270c2e609d6ae583c06396&STUDY_ID=6a270c2e609d6ae583c06396&SESSION_ID=6a270dffb796fcc9d17ebdfd?PROLIFIC_PID=6a066c6047b51ed1445ac532&SESSION_ID=6a270dffb796fcc9d17ebdfd?","en-US,en;q=0.9","6a066c6047b51ed1445ac532","6a270c2e609d6ae583c06396","6a270dffb796fcc9d17ebdfd?","6a066c6047b51ed1445ac532","6a270c2e609d6ae583c06396","6a270dffb796fcc9d17ebdfd?","30","[19,22,26,14,17,8,18,5,4,21,15,13,25,3,6,28,11,16,20,7,29,10,30,2,12,24,27,1,23,9]","[""P19"",""U22"",""U26"",""U14"",""P17"",""P8"",""P18"",""U5"",""U4"",""P21"",""P15"",""U13"",""P25"",""P3"",""U6"",""P28"",""P11"",""P16"",""P20"",""U7"",""U29"",""P10"",""P30"",""P2"",""P12"",""U24"",""P27"",""P1"",""U23"",""U9""]","[""U19"",""P22"",""P26"",""P14"",""U17"",""U8"",""U18"",""P5"",""P4"",""U21"",""U15"",""P13"",""U25"",""U3"",""P6"",""U28"",""U11"",""U16"",""U20"",""P7"",""P29"",""U10"",""U30"",""U2"",""U12"",""P24"",""U27"",""U1"",""P23"",""P9""]","4","4","0","0","1","1","","null","[""printer_v1.mp4""]","null","segmentation_video","","","","","","","","","printer_v1.mp4","printer","Predictable","[4.161019,8.584464,13.672007,19.318879,20.984046,23.303348,25.433656,28.271413,31.2176,34.349145,38.669894,42.515896,43.959702]","13","","P21","21","1","10","1.4438060000000021","false","false","false","","false","0","0","false","false","false","false",""
"","","","","","survey-multi-choice","52","2.0.0","612150","84","1","2026-06-08 18:48:05","segmentation_norming_randomized_order_maxrun_attention_v4","24.114.44.89","Mozilla/5.0 (Windows NT 10.0; Win64; x64) AppleWebKit/537.36 (KHTML, like Gecko) Chrome/149.0.0.0 Safari/537.36","WebKit","Chrome","149.0.0.0","Windows","10.0","https://uencdihehs.cognition.run/?PROLIFIC_PID=6a066c6047b51ed1445ac532&STUDY_ID=6a270c2e609d6ae583c06396&STUDY_ID=6a270c2e609d6ae583c06396&SESSION_ID=6a270dffb796fcc9d17ebdfd?PROLIFIC_PID=6a066c6047b51ed1445ac532&SESSION_ID=6a270dffb796fcc9d17ebdfd?","en-US,en;q=0.9","6a066c6047b51ed1445ac532","6a270c2e609d6ae583c06396","6a270dffb796fcc9d17ebdfd?","6a066c6047b51ed1445ac532","6a270c2e609d6ae583c06396","6a270dffb796fcc9d17ebdfd?","30","[19,22,26,14,17,8,18,5,4,21,15,13,25,3,6,28,11,16,20,7,29,10,30,2,12,24,27,1,23,9]","[""P19"",""U22"",""U26"",""U14"",""P17"",""P8"",""P18"",""U5"",""U4"",""P21"",""P15"",""U13"",""P25"",""P3"",""U6"",""P28"",""P11"",""P16"",""P20"",""U7"",""U29"",""P10"",""P30"",""P2"",""P12"",""U24"",""P27"",""P1"",""U23"",""U9""]","[""U19"",""P22"",""P26"",""P14"",""U17"",""U8"",""U18"",""P5"",""P4"",""U21"",""U15"",""P13"",""U25"",""U3"",""P6"",""U28"",""U11"",""U16"",""U20"",""P7"",""P29"",""U10"",""U30"",""U2"",""U12"",""P24"",""U27"",""U1"",""P23"",""P9""]","4","4","0","0","1","1","","4031","","{""confidence_rating"":""Very confident""}","confidence_question","[0]","","","","","","","","","printer","Predictable","","","","P21","21","1","10","","","","","","","","","","","","","Very confident"
"","","","","","video-keyboard-response","53","2.0.0","643114","84","1","2026-06-08 18:48:05","segmentation_norming_randomized_order_maxrun_attention_v4","24.114.44.89","Mozilla/5.0 (Windows NT 10.0; Win64; x64) AppleWebKit/537.36 (KHTML, like Gecko) Chrome/149.0.0.0 Safari/537.36","WebKit","Chrome","149.0.0.0","Windows","10.0","https://uencdihehs.cognition.run/?PROLIFIC_PID=6a066c6047b51ed1445ac532&STUDY_ID=6a270c2e609d6ae583c06396&STUDY_ID=6a270c2e609d6ae583c06396&SESSION_ID=6a270dffb796fcc9d17ebdfd?PROLIFIC_PID=6a066c6047b51ed1445ac532&SESSION_ID=6a270dffb796fcc9d17ebdfd?","en-US,en;q=0.9","6a066c6047b51ed1445ac532","6a270c2e609d6ae583c06396","6a270dffb796fcc9d17ebdfd?","6a066c6047b51ed1445ac532","6a270c2e609d6ae583c06396","6a270dffb796fcc9d17ebdfd?","30","[19,22,26,14,17,8,18,5,4,21,15,13,25,3,6,28,11,16,20,7,29,10,30,2,12,24,27,1,23,9]","[""P19"",""U22"",""U26"",""U14"",""P17"",""P8"",""P18"",""U5"",""U4"",""P21"",""P15"",""U13"",""P25"",""P3"",""U6"",""P28"",""P11"",""P16"",""P20"",""U7"",""U29"",""P10"",""P30"",""P2"",""P12"",""U24"",""P27"",""P1"",""U23"",""U9""]","[""U19"",""P22"",""P26"",""P14"",""U17"",""U8"",""U18"",""P5"",""P4"",""U21"",""U15"",""P13"",""U25"",""U3"",""P6"",""U28"",""U11"",""U16"",""U20"",""P7"",""P29"",""U10"",""U30"",""U2"",""U12"",""P24"",""U27"",""U1"",""P23"",""P9""]","4","4","0","0","1","1","","null","[""laundry_v1.mp4""]","null","segmentation_video","","","","","","","","","laundry_v1.mp4","laundry","Predictable","[1.519826,4.182463,8.098207,12.706253,16.111621,19.310826,25.420514,26.843426,28.320079]","9","","P15","15","1","11","1.4229120000000002","false","false","false","","false","0","0","false","false","false","false",""
"","","","","","survey-multi-choice","56","2.0.0","646746","84","1","2026-06-08 18:48:05","segmentation_norming_randomized_order_maxrun_attention_v4","24.114.44.89","Mozilla/5.0 (Windows NT 10.0; Win64; x64) AppleWebKit/537.36 (KHTML, like Gecko) Chrome/149.0.0.0 Safari/537.36","WebKit","Chrome","149.0.0.0","Windows","10.0","https://uencdihehs.cognition.run/?PROLIFIC_PID=6a066c6047b51ed1445ac532&STUDY_ID=6a270c2e609d6ae583c06396&STUDY_ID=6a270c2e609d6ae583c06396&SESSION_ID=6a270dffb796fcc9d17ebdfd?PROLIFIC_PID=6a066c6047b51ed1445ac532&SESSION_ID=6a270dffb796fcc9d17ebdfd?","en-US,en;q=0.9","6a066c6047b51ed1445ac532","6a270c2e609d6ae583c06396","6a270dffb796fcc9d17ebdfd?","6a066c6047b51ed1445ac532","6a270c2e609d6ae583c06396","6a270dffb796fcc9d17ebdfd?","30","[19,22,26,14,17,8,18,5,4,21,15,13,25,3,6,28,11,16,20,7,29,10,30,2,12,24,27,1,23,9]","[""P19"",""U22"",""U26"",""U14"",""P17"",""P8"",""P18"",""U5"",""U4"",""P21"",""P15"",""U13"",""P25"",""P3"",""U6"",""P28"",""P11"",""P16"",""P20"",""U7"",""U29"",""P10"",""P30"",""P2"",""P12"",""U24"",""P27"",""P1"",""U23"",""U9""]","[""U19"",""P22"",""P26"",""P14"",""U17"",""U8"",""U18"",""P5"",""P4"",""U21"",""U15"",""P13"",""U25"",""U3"",""P6"",""U28"",""U11"",""U16"",""U20"",""P7"",""P29"",""U10"",""U30"",""U2"",""U12"",""P24"",""U27"",""U1"",""P23"",""P9""]","4","4","0","0","1","1","","3629","","{""confidence_rating"":""Very confident""}","confidence_question","[0]","","","","","","","","","laundry","Predictable","","","","P15","15","1","11","","","","","","","","","","","","","Very confident"
"","","","","","video-keyboard-response","57","2.0.0","676194","84","1","2026-06-08 18:48:05","segmentation_norming_randomized_order_maxrun_attention_v4","24.114.44.89","Mozilla/5.0 (Windows NT 10.0; Win64; x64) AppleWebKit/537.36 (KHTML, like Gecko) Chrome/149.0.0.0 Safari/537.36","WebKit","Chrome","149.0.0.0","Windows","10.0","https://uencdihehs.cognition.run/?PROLIFIC_PID=6a066c6047b51ed1445ac532&STUDY_ID=6a270c2e609d6ae583c06396&STUDY_ID=6a270c2e609d6ae583c06396&SESSION_ID=6a270dffb796fcc9d17ebdfd?PROLIFIC_PID=6a066c6047b51ed1445ac532&SESSION_ID=6a270dffb796fcc9d17ebdfd?","en-US,en;q=0.9","6a066c6047b51ed1445ac532","6a270c2e609d6ae583c06396","6a270dffb796fcc9d17ebdfd?","6a066c6047b51ed1445ac532","6a270c2e609d6ae583c06396","6a270dffb796fcc9d17ebdfd?","30","[19,22,26,14,17,8,18,5,4,21,15,13,25,3,6,28,11,16,20,7,29,10,30,2,12,24,27,1,23,9]","[""P19"",""U22"",""U26"",""U14"",""P17"",""P8"",""P18"",""U5"",""U4"",""P21"",""P15"",""U13"",""P25"",""P3"",""U6"",""P28"",""P11"",""P16"",""P20"",""U7"",""U29"",""P10"",""P30"",""P2"",""P12"",""U24"",""P27"",""P1"",""U23"",""U9""]","[""U19"",""P22"",""P26"",""P14"",""U17"",""U8"",""U18"",""P5"",""P4"",""U21"",""U15"",""P13"",""U25"",""U3"",""P6"",""U28"",""U11"",""U16"",""U20"",""P7"",""P29"",""U10"",""U30"",""U2"",""U12"",""P24"",""U27"",""U1"",""P23"",""P9""]","4","4","0","0","1","1","","null","[""gym_v2.mp4""]","null","segmentation_video","","","","","","","","","gym_v2.mp4","gym","Unpredictable","[3.095771,5.156711,6.838694,9.330974,16.079149,18.181466,19.918661,22.840226,25.361184]","9","","U13","13","1","12","1.6819830000000007","false","false","false","","false","0","0","false","false","false","false",""
"","","","","","survey-multi-choice","60","2.0.0","679896","84","1","2026-06-08 18:48:05","segmentation_norming_randomized_order_maxrun_attention_v4","24.114.44.89","Mozilla/5.0 (Windows NT 10.0; Win64; x64) AppleWebKit/537.36 (KHTML, like Gecko) Chrome/149.0.0.0 Safari/537.36","WebKit","Chrome","149.0.0.0","Windows","10.0","https://uencdihehs.cognition.run/?PROLIFIC_PID=6a066c6047b51ed1445ac532&STUDY_ID=6a270c2e609d6ae583c06396&STUDY_ID=6a270c2e609d6ae583c06396&SESSION_ID=6a270dffb796fcc9d17ebdfd?PROLIFIC_PID=6a066c6047b51ed1445ac532&SESSION_ID=6a270dffb796fcc9d17ebdfd?","en-US,en;q=0.9","6a066c6047b51ed1445ac532","6a270c2e609d6ae583c06396","6a270dffb796fcc9d17ebdfd?","6a066c6047b51ed1445ac532","6a270c2e609d6ae583c06396","6a270dffb796fcc9d17ebdfd?","30","[19,22,26,14,17,8,18,5,4,21,15,13,25,3,6,28,11,16,20,7,29,10,30,2,12,24,27,1,23,9]","[""P19"",""U22"",""U26"",""U14"",""P17"",""P8"",""P18"",""U5"",""U4"",""P21"",""P15"",""U13"",""P25"",""P3"",""U6"",""P28"",""P11"",""P16"",""P20"",""U7"",""U29"",""P10"",""P30"",""P2"",""P12"",""U24"",""P27"",""P1"",""U23"",""U9""]","[""U19"",""P22"",""P26"",""P14"",""U17"",""U8"",""U18"",""P5"",""P4"",""U21"",""U15"",""P13"",""U25"",""U3"",""P6"",""U28"",""U11"",""U16"",""U20"",""P7"",""P29"",""U10"",""U30"",""U2"",""U12"",""P24"",""U27"",""U1"",""P23"",""P9""]","4","4","0","0","1","1","","3699","","{""confidence_rating"":""Very confident""}","confidence_question","[0]","","","","","","","","","gym","Unpredictable","","","","U13","13","1","12","","","","","","","","","","","","","Very confident"
"","","","","","video-keyboard-response","61","2.0.0","707174","84","1","2026-06-08 18:48:05","segmentation_norming_randomized_order_maxrun_attention_v4","24.114.44.89","Mozilla/5.0 (Windows NT 10.0; Win64; x64) AppleWebKit/537.36 (KHTML, like Gecko) Chrome/149.0.0.0 Safari/537.36","WebKit","Chrome","149.0.0.0","Windows","10.0","https://uencdihehs.cognition.run/?PROLIFIC_PID=6a066c6047b51ed1445ac532&STUDY_ID=6a270c2e609d6ae583c06396&STUDY_ID=6a270c2e609d6ae583c06396&SESSION_ID=6a270dffb796fcc9d17ebdfd?PROLIFIC_PID=6a066c6047b51ed1445ac532&SESSION_ID=6a270dffb796fcc9d17ebdfd?","en-US,en;q=0.9","6a066c6047b51ed1445ac532","6a270c2e609d6ae583c06396","6a270dffb796fcc9d17ebdfd?","6a066c6047b51ed1445ac532","6a270c2e609d6ae583c06396","6a270dffb796fcc9d17ebdfd?","30","[19,22,26,14,17,8,18,5,4,21,15,13,25,3,6,28,11,16,20,7,29,10,30,2,12,24,27,1,23,9]","[""P19"",""U22"",""U26"",""U14"",""P17"",""P8"",""P18"",""U5"",""U4"",""P21"",""P15"",""U13"",""P25"",""P3"",""U6"",""P28"",""P11"",""P16"",""P20"",""U7"",""U29"",""P10"",""P30"",""P2"",""P12"",""U24"",""P27"",""P1"",""U23"",""U9""]","[""U19"",""P22"",""P26"",""P14"",""U17"",""U8"",""U18"",""P5"",""P4"",""U21"",""U15"",""P13"",""U25"",""U3"",""P6"",""U28"",""U11"",""U16"",""U20"",""P7"",""P29"",""U10"",""U30"",""U2"",""U12"",""P24"",""U27"",""U1"",""P23"",""P9""]","4","4","0","0","1","1","","null","[""suitcase_v1.mp4""]","null","segmentation_video","","","","","","","","","suitcase_v1.mp4","suitcase","Predictable","[1.244463,2.382292,4.869092,7.203222,8.881884,13.086267,15.903918,22.05296,25.505822]","9","","P25","25","1","13","1.137829","false","false","false","","false","0","0","false","false","false","false",""
"","","","","","survey-multi-choice","64","2.0.0","710431","84","1","2026-06-08 18:48:05","segmentation_norming_randomized_order_maxrun_attention_v4","24.114.44.89","Mozilla/5.0 (Windows NT 10.0; Win64; x64) AppleWebKit/537.36 (KHTML, like Gecko) Chrome/149.0.0.0 Safari/537.36","WebKit","Chrome","149.0.0.0","Windows","10.0","https://uencdihehs.cognition.run/?PROLIFIC_PID=6a066c6047b51ed1445ac532&STUDY_ID=6a270c2e609d6ae583c06396&STUDY_ID=6a270c2e609d6ae583c06396&SESSION_ID=6a270dffb796fcc9d17ebdfd?PROLIFIC_PID=6a066c6047b51ed1445ac532&SESSION_ID=6a270dffb796fcc9d17ebdfd?","en-US,en;q=0.9","6a066c6047b51ed1445ac532","6a270c2e609d6ae583c06396","6a270dffb796fcc9d17ebdfd?","6a066c6047b51ed1445ac532","6a270c2e609d6ae583c06396","6a270dffb796fcc9d17ebdfd?","30","[19,22,26,14,17,8,18,5,4,21,15,13,25,3,6,28,11,16,20,7,29,10,30,2,12,24,27,1,23,9]","[""P19"",""U22"",""U26"",""U14"",""P17"",""P8"",""P18"",""U5"",""U4"",""P21"",""P15"",""U13"",""P25"",""P3"",""U6"",""P28"",""P11"",""P16"",""P20"",""U7"",""U29"",""P10"",""P30"",""P2"",""P12"",""U24"",""P27"",""P1"",""U23"",""U9""]","[""U19"",""P22"",""P26"",""P14"",""U17"",""U8"",""U18"",""P5"",""P4"",""U21"",""U15"",""P13"",""U25"",""U3"",""P6"",""U28"",""U11"",""U16"",""U20"",""P7"",""P29"",""U10"",""U30"",""U2"",""U12"",""P24"",""U27"",""U1"",""P23"",""P9""]","4","4","0","0","1","1","","3254","","{""confidence_rating"":""Very confident""}","confidence_question","[0]","","","","","","","","","suitcase","Predictable","","","","P25","25","1","13","","","","","","","","","","","","","Very confident"
"","","","","","video-keyboard-response","65","2.0.0","729654","84","1","2026-06-08 18:48:05","segmentation_norming_randomized_order_maxrun_attention_v4","24.114.44.89","Mozilla/5.0 (Windows NT 10.0; Win64; x64) AppleWebKit/537.36 (KHTML, like Gecko) Chrome/149.0.0.0 Safari/537.36","WebKit","Chrome","149.0.0.0","Windows","10.0","https://uencdihehs.cognition.run/?PROLIFIC_PID=6a066c6047b51ed1445ac532&STUDY_ID=6a270c2e609d6ae583c06396&STUDY_ID=6a270c2e609d6ae583c06396&SESSION_ID=6a270dffb796fcc9d17ebdfd?PROLIFIC_PID=6a066c6047b51ed1445ac532&SESSION_ID=6a270dffb796fcc9d17ebdfd?","en-US,en;q=0.9","6a066c6047b51ed1445ac532","6a270c2e609d6ae583c06396","6a270dffb796fcc9d17ebdfd?","6a066c6047b51ed1445ac532","6a270c2e609d6ae583c06396","6a270dffb796fcc9d17ebdfd?","30","[19,22,26,14,17,8,18,5,4,21,15,13,25,3,6,28,11,16,20,7,29,10,30,2,12,24,27,1,23,9]","[""P19"",""U22"",""U26"",""U14"",""P17"",""P8"",""P18"",""U5"",""U4"",""P21"",""P15"",""U13"",""P25"",""P3"",""U6"",""P28"",""P11"",""P16"",""P20"",""U7"",""U29"",""P10"",""P30"",""P2"",""P12"",""U24"",""P27"",""P1"",""U23"",""U9""]","[""U19"",""P22"",""P26"",""P14"",""U17"",""U8"",""U18"",""P5"",""P4"",""U21"",""U15"",""P13"",""U25"",""U3"",""P6"",""U28"",""U11"",""U16"",""U20"",""P7"",""P29"",""U10"",""U30"",""U2"",""U12"",""P24"",""U27"",""U1"",""P23"",""P9""]","4","4","0","0","1","1","","null","[""bank_v1.mp4""]","null","segmentation_video","","","","","","","","","bank_v1.mp4","bank","Predictable","[2.914946,6.82677,9.562601,11.346495,13.407828,18.091574]","6","","P3","3","1","14","1.783894","false","false","false","","false","0","0","false","false","false","false",""
"","","","","","survey-multi-choice","68","2.0.0","732846","84","1","2026-06-08 18:48:05","segmentation_norming_randomized_order_maxrun_attention_v4","24.114.44.89","Mozilla/5.0 (Windows NT 10.0; Win64; x64) AppleWebKit/537.36 (KHTML, like Gecko) Chrome/149.0.0.0 Safari/537.36","WebKit","Chrome","149.0.0.0","Windows","10.0","https://uencdihehs.cognition.run/?PROLIFIC_PID=6a066c6047b51ed1445ac532&STUDY_ID=6a270c2e609d6ae583c06396&STUDY_ID=6a270c2e609d6ae583c06396&SESSION_ID=6a270dffb796fcc9d17ebdfd?PROLIFIC_PID=6a066c6047b51ed1445ac532&SESSION_ID=6a270dffb796fcc9d17ebdfd?","en-US,en;q=0.9","6a066c6047b51ed1445ac532","6a270c2e609d6ae583c06396","6a270dffb796fcc9d17ebdfd?","6a066c6047b51ed1445ac532","6a270c2e609d6ae583c06396","6a270dffb796fcc9d17ebdfd?","30","[19,22,26,14,17,8,18,5,4,21,15,13,25,3,6,28,11,16,20,7,29,10,30,2,12,24,27,1,23,9]","[""P19"",""U22"",""U26"",""U14"",""P17"",""P8"",""P18"",""U5"",""U4"",""P21"",""P15"",""U13"",""P25"",""P3"",""U6"",""P28"",""P11"",""P16"",""P20"",""U7"",""U29"",""P10"",""P30"",""P2"",""P12"",""U24"",""P27"",""P1"",""U23"",""U9""]","[""U19"",""P22"",""P26"",""P14"",""U17"",""U8"",""U18"",""P5"",""P4"",""U21"",""U15"",""P13"",""U25"",""U3"",""P6"",""U28"",""U11"",""U16"",""U20"",""P7"",""P29"",""U10"",""U30"",""U2"",""U12"",""P24"",""U27"",""U1"",""P23"",""P9""]","4","4","0","0","1","1","","3190","","{""confidence_rating"":""Very confident""}","confidence_question","[0]","","","","","","","","","bank","Predictable","","","","P3","3","1","14","","","","","","","","","","","","","Very confident"
"","","","","","video-keyboard-response","69","2.0.0","767654","84","1","2026-06-08 18:48:05","segmentation_norming_randomized_order_maxrun_attention_v4","24.114.44.89","Mozilla/5.0 (Windows NT 10.0; Win64; x64) AppleWebKit/537.36 (KHTML, like Gecko) Chrome/149.0.0.0 Safari/537.36","WebKit","Chrome","149.0.0.0","Windows","10.0","https://uencdihehs.cognition.run/?PROLIFIC_PID=6a066c6047b51ed1445ac532&STUDY_ID=6a270c2e609d6ae583c06396&STUDY_ID=6a270c2e609d6ae583c06396&SESSION_ID=6a270dffb796fcc9d17ebdfd?PROLIFIC_PID=6a066c6047b51ed1445ac532&SESSION_ID=6a270dffb796fcc9d17ebdfd?","en-US,en;q=0.9","6a066c6047b51ed1445ac532","6a270c2e609d6ae583c06396","6a270dffb796fcc9d17ebdfd?","6a066c6047b51ed1445ac532","6a270c2e609d6ae583c06396","6a270dffb796fcc9d17ebdfd?","30","[19,22,26,14,17,8,18,5,4,21,15,13,25,3,6,28,11,16,20,7,29,10,30,2,12,24,27,1,23,9]","[""P19"",""U22"",""U26"",""U14"",""P17"",""P8"",""P18"",""U5"",""U4"",""P21"",""P15"",""U13"",""P25"",""P3"",""U6"",""P28"",""P11"",""P16"",""P20"",""U7"",""U29"",""P10"",""P30"",""P2"",""P12"",""U24"",""P27"",""P1"",""U23"",""U9""]","[""U19"",""P22"",""P26"",""P14"",""U17"",""U8"",""U18"",""P5"",""P4"",""U21"",""U15"",""P13"",""U25"",""U3"",""P6"",""U28"",""U11"",""U16"",""U20"",""P7"",""P29"",""U10"",""U30"",""U2"",""U12"",""P24"",""U27"",""U1"",""P23"",""P9""]","4","4","0","0","1","1","","null","[""bedding_v2.mp4""]","null","segmentation_video","","","","","","","","","bedding_v2.mp4","bedding","Unpredictable","[5.07883,9.634947,18.279613,27.029997,30.538375,33.786047]","6","","U6","6","1","15","3.247672000000005","false","false","false","","false","0","0","false","false","false","false",""
"","","","","","survey-multi-choice","72","2.0.0","771437","84","1","2026-06-08 18:48:05","segmentation_norming_randomized_order_maxrun_attention_v4","24.114.44.89","Mozilla/5.0 (Windows NT 10.0; Win64; x64) AppleWebKit/537.36 (KHTML, like Gecko) Chrome/149.0.0.0 Safari/537.36","WebKit","Chrome","149.0.0.0","Windows","10.0","https://uencdihehs.cognition.run/?PROLIFIC_PID=6a066c6047b51ed1445ac532&STUDY_ID=6a270c2e609d6ae583c06396&STUDY_ID=6a270c2e609d6ae583c06396&SESSION_ID=6a270dffb796fcc9d17ebdfd?PROLIFIC_PID=6a066c6047b51ed1445ac532&SESSION_ID=6a270dffb796fcc9d17ebdfd?","en-US,en;q=0.9","6a066c6047b51ed1445ac532","6a270c2e609d6ae583c06396","6a270dffb796fcc9d17ebdfd?","6a066c6047b51ed1445ac532","6a270c2e609d6ae583c06396","6a270dffb796fcc9d17ebdfd?","30","[19,22,26,14,17,8,18,5,4,21,15,13,25,3,6,28,11,16,20,7,29,10,30,2,12,24,27,1,23,9]","[""P19"",""U22"",""U26"",""U14"",""P17"",""P8"",""P18"",""U5"",""U4"",""P21"",""P15"",""U13"",""P25"",""P3"",""U6"",""P28"",""P11"",""P16"",""P20"",""U7"",""U29"",""P10"",""P30"",""P2"",""P12"",""U24"",""P27"",""P1"",""U23"",""U9""]","[""U19"",""P22"",""P26"",""P14"",""U17"",""U8"",""U18"",""P5"",""P4"",""U21"",""U15"",""P13"",""U25"",""U3"",""P6"",""U28"",""U11"",""U16"",""U20"",""P7"",""P29"",""U10"",""U30"",""U2"",""U12"",""P24"",""U27"",""U1"",""P23"",""P9""]","4","4","0","0","1","1","","3781","","{""confidence_rating"":""Very confident""}","confidence_question","[0]","","","","","","","","","bedding","Unpredictable","","","","U6","6","1","15","","","","","","","","","","","","","Very confident"
"","","","","","video-keyboard-response","73","2.0.0","801314","84","1","2026-06-08 18:48:05","segmentation_norming_randomized_order_maxrun_attention_v4","24.114.44.89","Mozilla/5.0 (Windows NT 10.0; Win64; x64) AppleWebKit/537.36 (KHTML, like Gecko) Chrome/149.0.0.0 Safari/537.36","WebKit","Chrome","149.0.0.0","Windows","10.0","https://uencdihehs.cognition.run/?PROLIFIC_PID=6a066c6047b51ed1445ac532&STUDY_ID=6a270c2e609d6ae583c06396&STUDY_ID=6a270c2e609d6ae583c06396&SESSION_ID=6a270dffb796fcc9d17ebdfd?PROLIFIC_PID=6a066c6047b51ed1445ac532&SESSION_ID=6a270dffb796fcc9d17ebdfd?","en-US,en;q=0.9","6a066c6047b51ed1445ac532","6a270c2e609d6ae583c06396","6a270dffb796fcc9d17ebdfd?","6a066c6047b51ed1445ac532","6a270c2e609d6ae583c06396","6a270dffb796fcc9d17ebdfd?","30","[19,22,26,14,17,8,18,5,4,21,15,13,25,3,6,28,11,16,20,7,29,10,30,2,12,24,27,1,23,9]","[""P19"",""U22"",""U26"",""U14"",""P17"",""P8"",""P18"",""U5"",""U4"",""P21"",""P15"",""U13"",""P25"",""P3"",""U6"",""P28"",""P11"",""P16"",""P20"",""U7"",""U29"",""P10"",""P30"",""P2"",""P12"",""U24"",""P27"",""P1"",""U23"",""U9""]","[""U19"",""P22"",""P26"",""P14"",""U17"",""U8"",""U18"",""P5"",""P4"",""U21"",""U15"",""P13"",""U25"",""U3"",""P6"",""U28"",""U11"",""U16"",""U20"",""P7"",""P29"",""U10"",""U30"",""U2"",""U12"",""P24"",""U27"",""U1"",""P23"",""P9""]","4","4","0","0","1","1","","null","[""tennis_v1.mp4""]","null","segmentation_video","","","","","","","","","tennis_v1.mp4","tennis","Predictable","[2.861667,4.876652,5.924759,10.318385,12.101791,14.872615,19.165982,25.25267,27.041856,29.207335]","10","","P28","28","1","16","1.048107","false","false","false","","false","0","0","false","false","false","false",""
"","","","","","survey-multi-choice","76","2.0.0","805615","84","1","2026-06-08 18:48:05","segmentation_norming_randomized_order_maxrun_attention_v4","24.114.44.89","Mozilla/5.0 (Windows NT 10.0; Win64; x64) AppleWebKit/537.36 (KHTML, like Gecko) Chrome/149.0.0.0 Safari/537.36","WebKit","Chrome","149.0.0.0","Windows","10.0","https://uencdihehs.cognition.run/?PROLIFIC_PID=6a066c6047b51ed1445ac532&STUDY_ID=6a270c2e609d6ae583c06396&STUDY_ID=6a270c2e609d6ae583c06396&SESSION_ID=6a270dffb796fcc9d17ebdfd?PROLIFIC_PID=6a066c6047b51ed1445ac532&SESSION_ID=6a270dffb796fcc9d17ebdfd?","en-US,en;q=0.9","6a066c6047b51ed1445ac532","6a270c2e609d6ae583c06396","6a270dffb796fcc9d17ebdfd?","6a066c6047b51ed1445ac532","6a270c2e609d6ae583c06396","6a270dffb796fcc9d17ebdfd?","30","[19,22,26,14,17,8,18,5,4,21,15,13,25,3,6,28,11,16,20,7,29,10,30,2,12,24,27,1,23,9]","[""P19"",""U22"",""U26"",""U14"",""P17"",""P8"",""P18"",""U5"",""U4"",""P21"",""P15"",""U13"",""P25"",""P3"",""U6"",""P28"",""P11"",""P16"",""P20"",""U7"",""U29"",""P10"",""P30"",""P2"",""P12"",""U24"",""P27"",""P1"",""U23"",""U9""]","[""U19"",""P22"",""P26"",""P14"",""U17"",""U8"",""U18"",""P5"",""P4"",""U21"",""U15"",""P13"",""U25"",""U3"",""P6"",""U28"",""U11"",""U16"",""U20"",""P7"",""P29"",""U10"",""U30"",""U2"",""U12"",""P24"",""U27"",""U1"",""P23"",""P9""]","4","4","0","0","1","1","","4298","","{""confidence_rating"":""Very confident""}","confidence_question","[0]","","","","","","","","","tennis","Predictable","","","","P28","28","1","16","","","","","","","","","","","","","Very confident"
"","","","","","video-keyboard-response","77","2.0.0","836734","84","1","2026-06-08 18:48:05","segmentation_norming_randomized_order_maxrun_attention_v4","24.114.44.89","Mozilla/5.0 (Windows NT 10.0; Win64; x64) AppleWebKit/537.36 (KHTML, like Gecko) Chrome/149.0.0.0 Safari/537.36","WebKit","Chrome","149.0.0.0","Windows","10.0","https://uencdihehs.cognition.run/?PROLIFIC_PID=6a066c6047b51ed1445ac532&STUDY_ID=6a270c2e609d6ae583c06396&STUDY_ID=6a270c2e609d6ae583c06396&SESSION_ID=6a270dffb796fcc9d17ebdfd?PROLIFIC_PID=6a066c6047b51ed1445ac532&SESSION_ID=6a270dffb796fcc9d17ebdfd?","en-US,en;q=0.9","6a066c6047b51ed1445ac532","6a270c2e609d6ae583c06396","6a270dffb796fcc9d17ebdfd?","6a066c6047b51ed1445ac532","6a270c2e609d6ae583c06396","6a270dffb796fcc9d17ebdfd?","30","[19,22,26,14,17,8,18,5,4,21,15,13,25,3,6,28,11,16,20,7,29,10,30,2,12,24,27,1,23,9]","[""P19"",""U22"",""U26"",""U14"",""P17"",""P8"",""P18"",""U5"",""U4"",""P21"",""P15"",""U13"",""P25"",""P3"",""U6"",""P28"",""P11"",""P16"",""P20"",""U7"",""U29"",""P10"",""P30"",""P2"",""P12"",""U24"",""P27"",""P1"",""U23"",""U9""]","[""U19"",""P22"",""P26"",""P14"",""U17"",""U8"",""U18"",""P5"",""P4"",""U21"",""U15"",""P13"",""U25"",""U3"",""P6"",""U28"",""U11"",""U16"",""U20"",""P7"",""P29"",""U10"",""U30"",""U2"",""U12"",""P24"",""U27"",""U1"",""P23"",""P9""]","4","4","0","0","1","1","","null","[""fireplace_v1.mp4""]","null","segmentation_video","","","","","","","","","fireplace_v1.mp4","fireplace","Predictable","[2.216083,3.793608,5.978838,10.393658,11.360924,12.519199,14.823916,17.086688,21.942436,29.177932]","10","","P11","11","1","17","0.9672660000000004","false","false","false","","false","0","0","false","false","false","false",""
"","","","","","survey-multi-choice","80","2.0.0","840495","84","1","2026-06-08 18:48:05","segmentation_norming_randomized_order_maxrun_attention_v4","24.114.44.89","Mozilla/5.0 (Windows NT 10.0; Win64; x64) AppleWebKit/537.36 (KHTML, like Gecko) Chrome/149.0.0.0 Safari/537.36","WebKit","Chrome","149.0.0.0","Windows","10.0","https://uencdihehs.cognition.run/?PROLIFIC_PID=6a066c6047b51ed1445ac532&STUDY_ID=6a270c2e609d6ae583c06396&STUDY_ID=6a270c2e609d6ae583c06396&SESSION_ID=6a270dffb796fcc9d17ebdfd?PROLIFIC_PID=6a066c6047b51ed1445ac532&SESSION_ID=6a270dffb796fcc9d17ebdfd?","en-US,en;q=0.9","6a066c6047b51ed1445ac532","6a270c2e609d6ae583c06396","6a270dffb796fcc9d17ebdfd?","6a066c6047b51ed1445ac532","6a270c2e609d6ae583c06396","6a270dffb796fcc9d17ebdfd?","30","[19,22,26,14,17,8,18,5,4,21,15,13,25,3,6,28,11,16,20,7,29,10,30,2,12,24,27,1,23,9]","[""P19"",""U22"",""U26"",""U14"",""P17"",""P8"",""P18"",""U5"",""U4"",""P21"",""P15"",""U13"",""P25"",""P3"",""U6"",""P28"",""P11"",""P16"",""P20"",""U7"",""U29"",""P10"",""P30"",""P2"",""P12"",""U24"",""P27"",""P1"",""U23"",""U9""]","[""U19"",""P22"",""P26"",""P14"",""U17"",""U8"",""U18"",""P5"",""P4"",""U21"",""U15"",""P13"",""U25"",""U3"",""P6"",""U28"",""U11"",""U16"",""U20"",""P7"",""P29"",""U10"",""U30"",""U2"",""U12"",""P24"",""U27"",""U1"",""P23"",""P9""]","4","4","0","0","1","1","","3760","","{""confidence_rating"":""Very confident""}","confidence_question","[0]","","","","","","","","","fireplace","Predictable","","","","P11","11","1","17","","","","","","","","","","","","","Very confident"
"","","","","","video-keyboard-response","81","2.0.0","870353","84","1","2026-06-08 18:48:05","segmentation_norming_randomized_order_maxrun_attention_v4","24.114.44.89","Mozilla/5.0 (Windows NT 10.0; Win64; x64) AppleWebKit/537.36 (KHTML, like Gecko) Chrome/149.0.0.0 Safari/537.36","WebKit","Chrome","149.0.0.0","Windows","10.0","https://uencdihehs.cognition.run/?PROLIFIC_PID=6a066c6047b51ed1445ac532&STUDY_ID=6a270c2e609d6ae583c06396&STUDY_ID=6a270c2e609d6ae583c06396&SESSION_ID=6a270dffb796fcc9d17ebdfd?PROLIFIC_PID=6a066c6047b51ed1445ac532&SESSION_ID=6a270dffb796fcc9d17ebdfd?","en-US,en;q=0.9","6a066c6047b51ed1445ac532","6a270c2e609d6ae583c06396","6a270dffb796fcc9d17ebdfd?","6a066c6047b51ed1445ac532","6a270c2e609d6ae583c06396","6a270dffb796fcc9d17ebdfd?","30","[19,22,26,14,17,8,18,5,4,21,15,13,25,3,6,28,11,16,20,7,29,10,30,2,12,24,27,1,23,9]","[""P19"",""U22"",""U26"",""U14"",""P17"",""P8"",""P18"",""U5"",""U4"",""P21"",""P15"",""U13"",""P25"",""P3"",""U6"",""P28"",""P11"",""P16"",""P20"",""U7"",""U29"",""P10"",""P30"",""P2"",""P12"",""U24"",""P27"",""P1"",""U23"",""U9""]","[""U19"",""P22"",""P26"",""P14"",""U17"",""U8"",""U18"",""P5"",""P4"",""U21"",""U15"",""P13"",""U25"",""U3"",""P6"",""U28"",""U11"",""U16"",""U20"",""P7"",""P29"",""U10"",""U30"",""U2"",""U12"",""P24"",""U27"",""U1"",""P23"",""P9""]","4","4","0","0","1","1","","null","[""mouse_v1.mp4""]","null","segmentation_video","","","","","","","","","mouse_v1.mp4","mouse","Predictable","[2.61102,4.034516,7.293801,9.198872,11.337209,13.351426,15.521458,20.98597,26.009016,29.24971]","10","","P16","16","1","18","1.423496","false","false","false","","false","0","0","false","false","false","false",""
"","","","","","survey-multi-choice","84","2.0.0","873788","84","1","2026-06-08 18:48:05","segmentation_norming_randomized_order_maxrun_attention_v4","24.114.44.89","Mozilla/5.0 (Windows NT 10.0; Win64; x64) AppleWebKit/537.36 (KHTML, like Gecko) Chrome/149.0.0.0 Safari/537.36","WebKit","Chrome","149.0.0.0","Windows","10.0","https://uencdihehs.cognition.run/?PROLIFIC_PID=6a066c6047b51ed1445ac532&STUDY_ID=6a270c2e609d6ae583c06396&STUDY_ID=6a270c2e609d6ae583c06396&SESSION_ID=6a270dffb796fcc9d17ebdfd?PROLIFIC_PID=6a066c6047b51ed1445ac532&SESSION_ID=6a270dffb796fcc9d17ebdfd?","en-US,en;q=0.9","6a066c6047b51ed1445ac532","6a270c2e609d6ae583c06396","6a270dffb796fcc9d17ebdfd?","6a066c6047b51ed1445ac532","6a270c2e609d6ae583c06396","6a270dffb796fcc9d17ebdfd?","30","[19,22,26,14,17,8,18,5,4,21,15,13,25,3,6,28,11,16,20,7,29,10,30,2,12,24,27,1,23,9]","[""P19"",""U22"",""U26"",""U14"",""P17"",""P8"",""P18"",""U5"",""U4"",""P21"",""P15"",""U13"",""P25"",""P3"",""U6"",""P28"",""P11"",""P16"",""P20"",""U7"",""U29"",""P10"",""P30"",""P2"",""P12"",""U24"",""P27"",""P1"",""U23"",""U9""]","[""U19"",""P22"",""P26"",""P14"",""U17"",""U8"",""U18"",""P5"",""P4"",""U21"",""U15"",""P13"",""U25"",""U3"",""P6"",""U28"",""U11"",""U16"",""U20"",""P7"",""P29"",""U10"",""U30"",""U2"",""U12"",""P24"",""U27"",""U1"",""P23"",""P9""]","4","4","0","0","1","1","","3432","","{""confidence_rating"":""Very confident""}","confidence_question","[0]","","","","","","","","","mouse","Predictable","","","","P16","16","1","18","","","","","","","","","","","","","Very confident"
"","","","","","video-keyboard-response","85","2.0.0","897454","84","1","2026-06-08 18:48:05","segmentation_norming_randomized_order_maxrun_attention_v4","24.114.44.89","Mozilla/5.0 (Windows NT 10.0; Win64; x64) AppleWebKit/537.36 (KHTML, like Gecko) Chrome/149.0.0.0 Safari/537.36","WebKit","Chrome","149.0.0.0","Windows","10.0","https://uencdihehs.cognition.run/?PROLIFIC_PID=6a066c6047b51ed1445ac532&STUDY_ID=6a270c2e609d6ae583c06396&STUDY_ID=6a270c2e609d6ae583c06396&SESSION_ID=6a270dffb796fcc9d17ebdfd?PROLIFIC_PID=6a066c6047b51ed1445ac532&SESSION_ID=6a270dffb796fcc9d17ebdfd?","en-US,en;q=0.9","6a066c6047b51ed1445ac532","6a270c2e609d6ae583c06396","6a270dffb796fcc9d17ebdfd?","6a066c6047b51ed1445ac532","6a270c2e609d6ae583c06396","6a270dffb796fcc9d17ebdfd?","30","[19,22,26,14,17,8,18,5,4,21,15,13,25,3,6,28,11,16,20,7,29,10,30,2,12,24,27,1,23,9]","[""P19"",""U22"",""U26"",""U14"",""P17"",""P8"",""P18"",""U5"",""U4"",""P21"",""P15"",""U13"",""P25"",""P3"",""U6"",""P28"",""P11"",""P16"",""P20"",""U7"",""U29"",""P10"",""P30"",""P2"",""P12"",""U24"",""P27"",""P1"",""U23"",""U9""]","[""U19"",""P22"",""P26"",""P14"",""U17"",""U8"",""U18"",""P5"",""P4"",""U21"",""U15"",""P13"",""U25"",""U3"",""P6"",""U28"",""U11"",""U16"",""U20"",""P7"",""P29"",""U10"",""U30"",""U2"",""U12"",""P24"",""U27"",""U1"",""P23"",""P9""]","4","4","0","0","1","1","","null","[""poster_v1.mp4""]","null","segmentation_video","","","","","","","","","poster_v1.mp4","poster","Predictable","[1.644961,1.769236,4.077938,8.748119,12.377892,14.658653,18.085415,19.826277,21.759911]","9","","P20","20","1","19","0.12427500000000014","false","true","true","rapid_successive_press","true","0","0","false","false","true","false",""
"","","","","","html-button-response","87","2.0.0","910339","84","1","2026-06-08 18:48:05","segmentation_norming_randomized_order_maxrun_attention_v4","24.114.44.89","Mozilla/5.0 (Windows NT 10.0; Win64; x64) AppleWebKit/537.36 (KHTML, like Gecko) Chrome/149.0.0.0 Safari/537.36","WebKit","Chrome","149.0.0.0","Windows","10.0","https://uencdihehs.cognition.run/?PROLIFIC_PID=6a066c6047b51ed1445ac532&STUDY_ID=6a270c2e609d6ae583c06396&STUDY_ID=6a270c2e609d6ae583c06396&SESSION_ID=6a270dffb796fcc9d17ebdfd?PROLIFIC_PID=6a066c6047b51ed1445ac532&SESSION_ID=6a270dffb796fcc9d17ebdfd?","en-US,en;q=0.9","6a066c6047b51ed1445ac532","6a270c2e609d6ae583c06396","6a270dffb796fcc9d17ebdfd?","6a066c6047b51ed1445ac532","6a270c2e609d6ae583c06396","6a270dffb796fcc9d17ebdfd?","30","[19,22,26,14,17,8,18,5,4,21,15,13,25,3,6,28,11,16,20,7,29,10,30,2,12,24,27,1,23,9]","[""P19"",""U22"",""U26"",""U14"",""P17"",""P8"",""P18"",""U5"",""U4"",""P21"",""P15"",""U13"",""P25"",""P3"",""U6"",""P28"",""P11"",""P16"",""P20"",""U7"",""U29"",""P10"",""P30"",""P2"",""P12"",""U24"",""P27"",""P1"",""U23"",""U9""]","[""U19"",""P22"",""P26"",""P14"",""U17"",""U8"",""U18"",""P5"",""P4"",""U21"",""U15"",""P13"",""U25"",""U3"",""P6"",""U28"",""U11"",""U16"",""U20"",""P7"",""P29"",""U10"",""U30"",""U2"",""U12"",""P24"",""U27"",""U1"",""P23"",""P9""]","4","4","0","0","1","1","","12882","<p style='color:red; font-weight:bold; font-size:24px;'>You did not meet the attention criteria for the previous video.</p><p>You may be asked to return your submission and cancel your participation if you do not attend to the task carefully.</p><p>You have <strong>3</strong> attention-violation warning(s) remaining before you will be asked to exit the experiment.</p><p>Please watch each video carefully and press the SPACE BAR only when one smallest meaningful unit of activity ends and another begins.</p>","0","attention_violation_feedback","","","","","","","","","","poster","Predictable","","","","P20","20","1","19","","","","","rapid_successive_press","","","","","","","",""
"","","","","","video-keyboard-response","89","2.0.0","940171","84","1","2026-06-08 18:48:05","segmentation_norming_randomized_order_maxrun_attention_v4","24.114.44.89","Mozilla/5.0 (Windows NT 10.0; Win64; x64) AppleWebKit/537.36 (KHTML, like Gecko) Chrome/149.0.0.0 Safari/537.36","WebKit","Chrome","149.0.0.0","Windows","10.0","https://uencdihehs.cognition.run/?PROLIFIC_PID=6a066c6047b51ed1445ac532&STUDY_ID=6a270c2e609d6ae583c06396&STUDY_ID=6a270c2e609d6ae583c06396&SESSION_ID=6a270dffb796fcc9d17ebdfd?PROLIFIC_PID=6a066c6047b51ed1445ac532&SESSION_ID=6a270dffb796fcc9d17ebdfd?","en-US,en;q=0.9","6a066c6047b51ed1445ac532","6a270c2e609d6ae583c06396","6a270dffb796fcc9d17ebdfd?","6a066c6047b51ed1445ac532","6a270c2e609d6ae583c06396","6a270dffb796fcc9d17ebdfd?","30","[19,22,26,14,17,8,18,5,4,21,15,13,25,3,6,28,11,16,20,7,29,10,30,2,12,24,27,1,23,9]","[""P19"",""U22"",""U26"",""U14"",""P17"",""P8"",""P18"",""U5"",""U4"",""P21"",""P15"",""U13"",""P25"",""P3"",""U6"",""P28"",""P11"",""P16"",""P20"",""U7"",""U29"",""P10"",""P30"",""P2"",""P12"",""U24"",""P27"",""P1"",""U23"",""U9""]","[""U19"",""P22"",""P26"",""P14"",""U17"",""U8"",""U18"",""P5"",""P4"",""U21"",""U15"",""P13"",""U25"",""U3"",""P6"",""U28"",""U11"",""U16"",""U20"",""P7"",""P29"",""U10"",""U30"",""U2"",""U12"",""P24"",""U27"",""U1"",""P23"",""P9""]","4","4","0","0","1","1","","null","[""bike_v2.mp4""]","null","segmentation_video","","","","","","","","","bike_v2.mp4","bike","Unpredictable","[3.834233,7.883624,12.688549,20.177389,24.613724]","5","","U7","7","1","20","4.049391","false","false","false","","false","0","0","false","false","false","false",""
"","","","","","survey-multi-choice","92","2.0.0","944953","84","1","2026-06-08 18:48:05","segmentation_norming_randomized_order_maxrun_attention_v4","24.114.44.89","Mozilla/5.0 (Windows NT 10.0; Win64; x64) AppleWebKit/537.36 (KHTML, like Gecko) Chrome/149.0.0.0 Safari/537.36","WebKit","Chrome","149.0.0.0","Windows","10.0","https://uencdihehs.cognition.run/?PROLIFIC_PID=6a066c6047b51ed1445ac532&STUDY_ID=6a270c2e609d6ae583c06396&STUDY_ID=6a270c2e609d6ae583c06396&SESSION_ID=6a270dffb796fcc9d17ebdfd?PROLIFIC_PID=6a066c6047b51ed1445ac532&SESSION_ID=6a270dffb796fcc9d17ebdfd?","en-US,en;q=0.9","6a066c6047b51ed1445ac532","6a270c2e609d6ae583c06396","6a270dffb796fcc9d17ebdfd?","6a066c6047b51ed1445ac532","6a270c2e609d6ae583c06396","6a270dffb796fcc9d17ebdfd?","30","[19,22,26,14,17,8,18,5,4,21,15,13,25,3,6,28,11,16,20,7,29,10,30,2,12,24,27,1,23,9]","[""P19"",""U22"",""U26"",""U14"",""P17"",""P8"",""P18"",""U5"",""U4"",""P21"",""P15"",""U13"",""P25"",""P3"",""U6"",""P28"",""P11"",""P16"",""P20"",""U7"",""U29"",""P10"",""P30"",""P2"",""P12"",""U24"",""P27"",""P1"",""U23"",""U9""]","[""U19"",""P22"",""P26"",""P14"",""U17"",""U8"",""U18"",""P5"",""P4"",""U21"",""U15"",""P13"",""U25"",""U3"",""P6"",""U28"",""U11"",""U16"",""U20"",""P7"",""P29"",""U10"",""U30"",""U2"",""U12"",""P24"",""U27"",""U1"",""P23"",""P9""]","4","4","0","0","1","1","","4779","","{""confidence_rating"":""Very confident""}","confidence_question","[0]","","","","","","","","","bike","Unpredictable","","","","U7","7","1","20","","","","","","","","","","","","","Very confident"
"","","","","","video-keyboard-response","93","2.0.0","966611","84","1","2026-06-08 18:48:05","segmentation_norming_randomized_order_maxrun_attention_v4","24.114.44.89","Mozilla/5.0 (Windows NT 10.0; Win64; x64) AppleWebKit/537.36 (KHTML, like Gecko) Chrome/149.0.0.0 Safari/537.36","WebKit","Chrome","149.0.0.0","Windows","10.0","https://uencdihehs.cognition.run/?PROLIFIC_PID=6a066c6047b51ed1445ac532&STUDY_ID=6a270c2e609d6ae583c06396&STUDY_ID=6a270c2e609d6ae583c06396&SESSION_ID=6a270dffb796fcc9d17ebdfd?PROLIFIC_PID=6a066c6047b51ed1445ac532&SESSION_ID=6a270dffb796fcc9d17ebdfd?","en-US,en;q=0.9","6a066c6047b51ed1445ac532","6a270c2e609d6ae583c06396","6a270dffb796fcc9d17ebdfd?","6a066c6047b51ed1445ac532","6a270c2e609d6ae583c06396","6a270dffb796fcc9d17ebdfd?","30","[19,22,26,14,17,8,18,5,4,21,15,13,25,3,6,28,11,16,20,7,29,10,30,2,12,24,27,1,23,9]","[""P19"",""U22"",""U26"",""U14"",""P17"",""P8"",""P18"",""U5"",""U4"",""P21"",""P15"",""U13"",""P25"",""P3"",""U6"",""P28"",""P11"",""P16"",""P20"",""U7"",""U29"",""P10"",""P30"",""P2"",""P12"",""U24"",""P27"",""P1"",""U23"",""U9""]","[""U19"",""P22"",""P26"",""P14"",""U17"",""U8"",""U18"",""P5"",""P4"",""U21"",""U15"",""P13"",""U25"",""U3"",""P6"",""U28"",""U11"",""U16"",""U20"",""P7"",""P29"",""U10"",""U30"",""U2"",""U12"",""P24"",""U27"",""U1"",""P23"",""P9""]","4","4","0","0","1","1","","null","[""walking_v2.mp4""]","null","segmentation_video","","","","","","","","","walking_v2.mp4","walking","Unpredictable","[2.923519,5.064619,7.700085,10.03172,15.383383,18.944472]","6","","U29","29","1","21","2.1411000000000002","false","false","false","","false","0","0","false","false","false","false",""
"","","","","","survey-multi-choice","96","2.0.0","970298","84","1","2026-06-08 18:48:05","segmentation_norming_randomized_order_maxrun_attention_v4","24.114.44.89","Mozilla/5.0 (Windows NT 10.0; Win64; x64) AppleWebKit/537.36 (KHTML, like Gecko) Chrome/149.0.0.0 Safari/537.36","WebKit","Chrome","149.0.0.0","Windows","10.0","https://uencdihehs.cognition.run/?PROLIFIC_PID=6a066c6047b51ed1445ac532&STUDY_ID=6a270c2e609d6ae583c06396&STUDY_ID=6a270c2e609d6ae583c06396&SESSION_ID=6a270dffb796fcc9d17ebdfd?PROLIFIC_PID=6a066c6047b51ed1445ac532&SESSION_ID=6a270dffb796fcc9d17ebdfd?","en-US,en;q=0.9","6a066c6047b51ed1445ac532","6a270c2e609d6ae583c06396","6a270dffb796fcc9d17ebdfd?","6a066c6047b51ed1445ac532","6a270c2e609d6ae583c06396","6a270dffb796fcc9d17ebdfd?","30","[19,22,26,14,17,8,18,5,4,21,15,13,25,3,6,28,11,16,20,7,29,10,30,2,12,24,27,1,23,9]","[""P19"",""U22"",""U26"",""U14"",""P17"",""P8"",""P18"",""U5"",""U4"",""P21"",""P15"",""U13"",""P25"",""P3"",""U6"",""P28"",""P11"",""P16"",""P20"",""U7"",""U29"",""P10"",""P30"",""P2"",""P12"",""U24"",""P27"",""P1"",""U23"",""U9""]","[""U19"",""P22"",""P26"",""P14"",""U17"",""U8"",""U18"",""P5"",""P4"",""U21"",""U15"",""P13"",""U25"",""U3"",""P6"",""U28"",""U11"",""U16"",""U20"",""P7"",""P29"",""U10"",""U30"",""U2"",""U12"",""P24"",""U27"",""U1"",""P23"",""P9""]","4","4","0","0","1","1","","3684","","{""confidence_rating"":""Very confident""}","confidence_question","[0]","","","","","","","","","walking","Unpredictable","","","","U29","29","1","21","","","","","","","","","","","","","Very confident"
"","","","","","video-keyboard-response","97","2.0.0","1000891","84","1","2026-06-08 18:48:05","segmentation_norming_randomized_order_maxrun_attention_v4","24.114.44.89","Mozilla/5.0 (Windows NT 10.0; Win64; x64) AppleWebKit/537.36 (KHTML, like Gecko) Chrome/149.0.0.0 Safari/537.36","WebKit","Chrome","149.0.0.0","Windows","10.0","https://uencdihehs.cognition.run/?PROLIFIC_PID=6a066c6047b51ed1445ac532&STUDY_ID=6a270c2e609d6ae583c06396&STUDY_ID=6a270c2e609d6ae583c06396&SESSION_ID=6a270dffb796fcc9d17ebdfd?PROLIFIC_PID=6a066c6047b51ed1445ac532&SESSION_ID=6a270dffb796fcc9d17ebdfd?","en-US,en;q=0.9","6a066c6047b51ed1445ac532","6a270c2e609d6ae583c06396","6a270dffb796fcc9d17ebdfd?","6a066c6047b51ed1445ac532","6a270c2e609d6ae583c06396","6a270dffb796fcc9d17ebdfd?","30","[19,22,26,14,17,8,18,5,4,21,15,13,25,3,6,28,11,16,20,7,29,10,30,2,12,24,27,1,23,9]","[""P19"",""U22"",""U26"",""U14"",""P17"",""P8"",""P18"",""U5"",""U4"",""P21"",""P15"",""U13"",""P25"",""P3"",""U6"",""P28"",""P11"",""P16"",""P20"",""U7"",""U29"",""P10"",""P30"",""P2"",""P12"",""U24"",""P27"",""P1"",""U23"",""U9""]","[""U19"",""P22"",""P26"",""P14"",""U17"",""U8"",""U18"",""P5"",""P4"",""U21"",""U15"",""P13"",""U25"",""U3"",""P6"",""U28"",""U11"",""U16"",""U20"",""P7"",""P29"",""U10"",""U30"",""U2"",""U12"",""P24"",""U27"",""U1"",""P23"",""P9""]","4","4","0","0","1","1","","null","[""cleaning_v1.mp4""]","null","segmentation_video","","","","","","","","","cleaning_v1.mp4","cleaning","Predictable","[2.349537,6.149899,10.778647,19.011714,20.699758,22.784551,28.814751]","7","","P10","10","1","22","1.6880439999999979","false","false","false","","false","0","0","false","false","false","false",""
"","","","","","survey-multi-choice","100","2.0.0","1005006","84","1","2026-06-08 18:48:05","segmentation_norming_randomized_order_maxrun_attention_v4","24.114.44.89","Mozilla/5.0 (Windows NT 10.0; Win64; x64) AppleWebKit/537.36 (KHTML, like Gecko) Chrome/149.0.0.0 Safari/537.36","WebKit","Chrome","149.0.0.0","Windows","10.0","https://uencdihehs.cognition.run/?PROLIFIC_PID=6a066c6047b51ed1445ac532&STUDY_ID=6a270c2e609d6ae583c06396&STUDY_ID=6a270c2e609d6ae583c06396&SESSION_ID=6a270dffb796fcc9d17ebdfd?PROLIFIC_PID=6a066c6047b51ed1445ac532&SESSION_ID=6a270dffb796fcc9d17ebdfd?","en-US,en;q=0.9","6a066c6047b51ed1445ac532","6a270c2e609d6ae583c06396","6a270dffb796fcc9d17ebdfd?","6a066c6047b51ed1445ac532","6a270c2e609d6ae583c06396","6a270dffb796fcc9d17ebdfd?","30","[19,22,26,14,17,8,18,5,4,21,15,13,25,3,6,28,11,16,20,7,29,10,30,2,12,24,27,1,23,9]","[""P19"",""U22"",""U26"",""U14"",""P17"",""P8"",""P18"",""U5"",""U4"",""P21"",""P15"",""U13"",""P25"",""P3"",""U6"",""P28"",""P11"",""P16"",""P20"",""U7"",""U29"",""P10"",""P30"",""P2"",""P12"",""U24"",""P27"",""P1"",""U23"",""U9""]","[""U19"",""P22"",""P26"",""P14"",""U17"",""U8"",""U18"",""P5"",""P4"",""U21"",""U15"",""P13"",""U25"",""U3"",""P6"",""U28"",""U11"",""U16"",""U20"",""P7"",""P29"",""U10"",""U30"",""U2"",""U12"",""P24"",""U27"",""U1"",""P23"",""P9""]","4","4","0","0","1","1","","4113","","{""confidence_rating"":""Very confident""}","confidence_question","[0]","","","","","","","","","cleaning","Predictable","","","","P10","10","1","22","","","","","","","","","","","","","Very confident"
"","","","","","video-keyboard-response","101","2.0.0","1041691","84","1","2026-06-08 18:48:05","segmentation_norming_randomized_order_maxrun_attention_v4","24.114.44.89","Mozilla/5.0 (Windows NT 10.0; Win64; x64) AppleWebKit/537.36 (KHTML, like Gecko) Chrome/149.0.0.0 Safari/537.36","WebKit","Chrome","149.0.0.0","Windows","10.0","https://uencdihehs.cognition.run/?PROLIFIC_PID=6a066c6047b51ed1445ac532&STUDY_ID=6a270c2e609d6ae583c06396&STUDY_ID=6a270c2e609d6ae583c06396&SESSION_ID=6a270dffb796fcc9d17ebdfd?PROLIFIC_PID=6a066c6047b51ed1445ac532&SESSION_ID=6a270dffb796fcc9d17ebdfd?","en-US,en;q=0.9","6a066c6047b51ed1445ac532","6a270c2e609d6ae583c06396","6a270dffb796fcc9d17ebdfd?","6a066c6047b51ed1445ac532","6a270c2e609d6ae583c06396","6a270dffb796fcc9d17ebdfd?","30","[19,22,26,14,17,8,18,5,4,21,15,13,25,3,6,28,11,16,20,7,29,10,30,2,12,24,27,1,23,9]","[""P19"",""U22"",""U26"",""U14"",""P17"",""P8"",""P18"",""U5"",""U4"",""P21"",""P15"",""U13"",""P25"",""P3"",""U6"",""P28"",""P11"",""P16"",""P20"",""U7"",""U29"",""P10"",""P30"",""P2"",""P12"",""U24"",""P27"",""P1"",""U23"",""U9""]","[""U19"",""P22"",""P26"",""P14"",""U17"",""U8"",""U18"",""P5"",""P4"",""U21"",""U15"",""P13"",""U25"",""U3"",""P6"",""U28"",""U11"",""U16"",""U20"",""P7"",""P29"",""U10"",""U30"",""U2"",""U12"",""P24"",""U27"",""U1"",""P23"",""P9""]","4","4","0","0","1","1","","null","[""whiteboard_v1.mp4""]","null","segmentation_video","","","","","","","","","whiteboard_v1.mp4","whiteboard","Predictable","[5.591912,8.8028,12.562303,16.05964,20.450151,23.049568,25.535629,28.829303,31.263767,33.334345,35.440675]","11","","P30","30","1","23","2.0705779999999976","false","false","false","","false","0","0","false","false","false","false",""
"","","","","","survey-multi-choice","104","2.0.0","1045304","84","1","2026-06-08 18:48:05","segmentation_norming_randomized_order_maxrun_attention_v4","24.114.44.89","Mozilla/5.0 (Windows NT 10.0; Win64; x64) AppleWebKit/537.36 (KHTML, like Gecko) Chrome/149.0.0.0 Safari/537.36","WebKit","Chrome","149.0.0.0","Windows","10.0","https://uencdihehs.cognition.run/?PROLIFIC_PID=6a066c6047b51ed1445ac532&STUDY_ID=6a270c2e609d6ae583c06396&STUDY_ID=6a270c2e609d6ae583c06396&SESSION_ID=6a270dffb796fcc9d17ebdfd?PROLIFIC_PID=6a066c6047b51ed1445ac532&SESSION_ID=6a270dffb796fcc9d17ebdfd?","en-US,en;q=0.9","6a066c6047b51ed1445ac532","6a270c2e609d6ae583c06396","6a270dffb796fcc9d17ebdfd?","6a066c6047b51ed1445ac532","6a270c2e609d6ae583c06396","6a270dffb796fcc9d17ebdfd?","30","[19,22,26,14,17,8,18,5,4,21,15,13,25,3,6,28,11,16,20,7,29,10,30,2,12,24,27,1,23,9]","[""P19"",""U22"",""U26"",""U14"",""P17"",""P8"",""P18"",""U5"",""U4"",""P21"",""P15"",""U13"",""P25"",""P3"",""U6"",""P28"",""P11"",""P16"",""P20"",""U7"",""U29"",""P10"",""P30"",""P2"",""P12"",""U24"",""P27"",""P1"",""U23"",""U9""]","[""U19"",""P22"",""P26"",""P14"",""U17"",""U8"",""U18"",""P5"",""P4"",""U21"",""U15"",""P13"",""U25"",""U3"",""P6"",""U28"",""U11"",""U16"",""U20"",""P7"",""P29"",""U10"",""U30"",""U2"",""U12"",""P24"",""U27"",""U1"",""P23"",""P9""]","4","4","0","0","1","1","","3610","","{""confidence_rating"":""Very confident""}","confidence_question","[0]","","","","","","","","","whiteboard","Predictable","","","","P30","30","1","23","","","","","","","","","","","","","Very confident"
"","","","","","video-keyboard-response","105","2.0.0","1073190","84","1","2026-06-08 18:48:05","segmentation_norming_randomized_order_maxrun_attention_v4","24.114.44.89","Mozilla/5.0 (Windows NT 10.0; Win64; x64) AppleWebKit/537.36 (KHTML, like Gecko) Chrome/149.0.0.0 Safari/537.36","WebKit","Chrome","149.0.0.0","Windows","10.0","https://uencdihehs.cognition.run/?PROLIFIC_PID=6a066c6047b51ed1445ac532&STUDY_ID=6a270c2e609d6ae583c06396&STUDY_ID=6a270c2e609d6ae583c06396&SESSION_ID=6a270dffb796fcc9d17ebdfd?PROLIFIC_PID=6a066c6047b51ed1445ac532&SESSION_ID=6a270dffb796fcc9d17ebdfd?","en-US,en;q=0.9","6a066c6047b51ed1445ac532","6a270c2e609d6ae583c06396","6a270dffb796fcc9d17ebdfd?","6a066c6047b51ed1445ac532","6a270c2e609d6ae583c06396","6a270dffb796fcc9d17ebdfd?","30","[19,22,26,14,17,8,18,5,4,21,15,13,25,3,6,28,11,16,20,7,29,10,30,2,12,24,27,1,23,9]","[""P19"",""U22"",""U26"",""U14"",""P17"",""P8"",""P18"",""U5"",""U4"",""P21"",""P15"",""U13"",""P25"",""P3"",""U6"",""P28"",""P11"",""P16"",""P20"",""U7"",""U29"",""P10"",""P30"",""P2"",""P12"",""U24"",""P27"",""P1"",""U23"",""U9""]","[""U19"",""P22"",""P26"",""P14"",""U17"",""U8"",""U18"",""P5"",""P4"",""U21"",""U15"",""P13"",""U25"",""U3"",""P6"",""U28"",""U11"",""U16"",""U20"",""P7"",""P29"",""U10"",""U30"",""U2"",""U12"",""P24"",""U27"",""U1"",""P23"",""P9""]","4","4","0","0","1","1","","null","[""balcony_v1.mp4""]","null","segmentation_video","","","","","","","","","balcony_v1.mp4","balcony","Predictable","[1.620232,6.071606,7.671604,10.878754,13.474076,15.250818,17.006121,20.812312,25.005073,27.217987]","10","","P2","2","1","24","1.5999980000000003","false","false","false","","false","0","0","false","false","false","false",""
"","","","","","survey-multi-choice","108","2.0.0","1077154","84","1","2026-06-08 18:48:05","segmentation_norming_randomized_order_maxrun_attention_v4","24.114.44.89","Mozilla/5.0 (Windows NT 10.0; Win64; x64) AppleWebKit/537.36 (KHTML, like Gecko) Chrome/149.0.0.0 Safari/537.36","WebKit","Chrome","149.0.0.0","Windows","10.0","https://uencdihehs.cognition.run/?PROLIFIC_PID=6a066c6047b51ed1445ac532&STUDY_ID=6a270c2e609d6ae583c06396&STUDY_ID=6a270c2e609d6ae583c06396&SESSION_ID=6a270dffb796fcc9d17ebdfd?PROLIFIC_PID=6a066c6047b51ed1445ac532&SESSION_ID=6a270dffb796fcc9d17ebdfd?","en-US,en;q=0.9","6a066c6047b51ed1445ac532","6a270c2e609d6ae583c06396","6a270dffb796fcc9d17ebdfd?","6a066c6047b51ed1445ac532","6a270c2e609d6ae583c06396","6a270dffb796fcc9d17ebdfd?","30","[19,22,26,14,17,8,18,5,4,21,15,13,25,3,6,28,11,16,20,7,29,10,30,2,12,24,27,1,23,9]","[""P19"",""U22"",""U26"",""U14"",""P17"",""P8"",""P18"",""U5"",""U4"",""P21"",""P15"",""U13"",""P25"",""P3"",""U6"",""P28"",""P11"",""P16"",""P20"",""U7"",""U29"",""P10"",""P30"",""P2"",""P12"",""U24"",""P27"",""P1"",""U23"",""U9""]","[""U19"",""P22"",""P26"",""P14"",""U17"",""U8"",""U18"",""P5"",""P4"",""U21"",""U15"",""P13"",""U25"",""U3"",""P6"",""U28"",""U11"",""U16"",""U20"",""P7"",""P29"",""U10"",""U30"",""U2"",""U12"",""P24"",""U27"",""U1"",""P23"",""P9""]","4","4","0","0","1","1","","3961","","{""confidence_rating"":""Very confident""}","confidence_question","[0]","","","","","","","","","balcony","Predictable","","","","P2","2","1","24","","","","","","","","","","","","","Very confident"
