"success","timeout","failed_images","failed_audio","failed_video","trial_type","trial_index","plugin_version","time_elapsed","run_id","condition","recorded_at","source_code_version","ip","user_agent","device","browser","browser_version","platform","platform_version","referer","accept_language","PROLIFIC_PID","STUDY_ID","SESSION_ID","subject_id","study_id","session_id","pair_count","randomized_pair_order","block1_codes","block2_codes","max_run_block1","max_run_block2","fullscreen_exit_count","tab_switch_count","video_attention_failure_count","total_attention_violation_count","view_history","rt","stimulus","response","trial_kind","question_order","spacebar_question_answer","attention_question_answer","spacebar_question_correct","attention_question_correct","instruction_check_passed","demo_index","demo_code","stimulus_file","stimulus_name","predictability","boundary_times_sec","boundary_count","value","video_code","pair_number","block","global_position_in_block","min_press_gap_sec","no_press_failure","rapid_press_failure","video_attention_failed","video_attention_failure_type","last_video_had_any_attention_violation","current_video_fullscreen_exit_count","current_video_tab_switch_count","current_video_had_fullscreen_exit","current_video_had_tab_switch","current_video_had_video_attention_failure","skipped_video_debug","confidence_rating"
"true","false","[]","[]","[]","preload","0","2.0.0","3769","83","1","2026-06-08 18:48:01","segmentation_norming_randomized_order_maxrun_attention_v4","90.198.164.41","Mozilla/5.0 (Windows NT 10.0; Win64; x64) AppleWebKit/537.36 (KHTML, like Gecko) Chrome/148.0.0.0 Safari/537.36","WebKit","Chrome","148.0.0.0","Windows","10.0","https://uencdihehs.cognition.run/?PROLIFIC_PID=69ffbea27516957e550655d3&STUDY_ID=6a270c2e609d6ae583c06396&STUDY_ID=6a270c2e609d6ae583c06396&SESSION_ID=6a270e10d83e560726f73282?PROLIFIC_PID=69ffbea27516957e550655d3&SESSION_ID=6a270e10d83e560726f73282?","en-US,en;q=0.9","69ffbea27516957e550655d3","6a270c2e609d6ae583c06396","6a270e10d83e560726f73282?","69ffbea27516957e550655d3","6a270c2e609d6ae583c06396","6a270e10d83e560726f73282?","30","[20,21,14,18,23,15,9,7,19,3,5,27,13,30,11,12,17,24,26,29,4,22,25,8,2,6,16,10,28,1]","[""U20"",""P21"",""U14"",""U18"",""P23"",""P15"",""P9"",""U7"",""U19"",""P3"",""P5"",""P27"",""P13"",""U30"",""U11"",""P12"",""U17"",""P24"",""P26"",""P29"",""U4"",""P22"",""P25"",""U8"",""U2"",""U6"",""U16"",""P10"",""P28"",""P1""]","[""P20"",""U21"",""P14"",""P18"",""U23"",""U15"",""U9"",""P7"",""P19"",""U3"",""U5"",""U27"",""U13"",""P30"",""P11"",""U12"",""P17"",""U24"",""U26"",""U29"",""P4"",""U22"",""U25"",""P8"",""P2"",""P6"",""P16"",""U10"",""U28"",""U1""]","4","4","0","0","2","2","","","","","","","","","","","","","","","","","","","","","","","","","","","","","","","","","","","",""
"","","","","","instructions","1","2.0.0","11171","83","1","2026-06-08 18:48:01","segmentation_norming_randomized_order_maxrun_attention_v4","90.198.164.41","Mozilla/5.0 (Windows NT 10.0; Win64; x64) AppleWebKit/537.36 (KHTML, like Gecko) Chrome/148.0.0.0 Safari/537.36","WebKit","Chrome","148.0.0.0","Windows","10.0","https://uencdihehs.cognition.run/?PROLIFIC_PID=69ffbea27516957e550655d3&STUDY_ID=6a270c2e609d6ae583c06396&STUDY_ID=6a270c2e609d6ae583c06396&SESSION_ID=6a270e10d83e560726f73282?PROLIFIC_PID=69ffbea27516957e550655d3&SESSION_ID=6a270e10d83e560726f73282?","en-US,en;q=0.9","69ffbea27516957e550655d3","6a270c2e609d6ae583c06396","6a270e10d83e560726f73282?","69ffbea27516957e550655d3","6a270c2e609d6ae583c06396","6a270e10d83e560726f73282?","30","[20,21,14,18,23,15,9,7,19,3,5,27,13,30,11,12,17,24,26,29,4,22,25,8,2,6,16,10,28,1]","[""U20"",""P21"",""U14"",""U18"",""P23"",""P15"",""P9"",""U7"",""U19"",""P3"",""P5"",""P27"",""P13"",""U30"",""U11"",""P12"",""U17"",""P24"",""P26"",""P29"",""U4"",""P22"",""P25"",""U8"",""U2"",""U6"",""U16"",""P10"",""P28"",""P1""]","[""P20"",""U21"",""P14"",""P18"",""U23"",""U15"",""U9"",""P7"",""P19"",""U3"",""U5"",""U27"",""U13"",""P30"",""P11"",""U12"",""P17"",""U24"",""U26"",""U29"",""P4"",""U22"",""U25"",""P8"",""P2"",""P6"",""P16"",""U10"",""U28"",""U1""]","4","4","0","0","2","2","[{""page_index"":0,""viewing_time"":7401}]","7401","","","","","","","","","","","","","","","","","","","","","","","","","","","","","","","","","",""
"true","","","","","fullscreen","2","2.0.0","14013","83","1","2026-06-08 18:48:01","segmentation_norming_randomized_order_maxrun_attention_v4","90.198.164.41","Mozilla/5.0 (Windows NT 10.0; Win64; x64) AppleWebKit/537.36 (KHTML, like Gecko) Chrome/148.0.0.0 Safari/537.36","WebKit","Chrome","148.0.0.0","Windows","10.0","https://uencdihehs.cognition.run/?PROLIFIC_PID=69ffbea27516957e550655d3&STUDY_ID=6a270c2e609d6ae583c06396&STUDY_ID=6a270c2e609d6ae583c06396&SESSION_ID=6a270e10d83e560726f73282?PROLIFIC_PID=69ffbea27516957e550655d3&SESSION_ID=6a270e10d83e560726f73282?","en-US,en;q=0.9","69ffbea27516957e550655d3","6a270c2e609d6ae583c06396","6a270e10d83e560726f73282?","69ffbea27516957e550655d3","6a270c2e609d6ae583c06396","6a270e10d83e560726f73282?","30","[20,21,14,18,23,15,9,7,19,3,5,27,13,30,11,12,17,24,26,29,4,22,25,8,2,6,16,10,28,1]","[""U20"",""P21"",""U14"",""U18"",""P23"",""P15"",""P9"",""U7"",""U19"",""P3"",""P5"",""P27"",""P13"",""U30"",""U11"",""P12"",""U17"",""P24"",""P26"",""P29"",""U4"",""P22"",""P25"",""U8"",""U2"",""U6"",""U16"",""P10"",""P28"",""P1""]","[""P20"",""U21"",""P14"",""P18"",""U23"",""U15"",""U9"",""P7"",""P19"",""U3"",""U5"",""U27"",""U13"",""P30"",""P11"",""U12"",""P17"",""U24"",""U26"",""U29"",""P4"",""U22"",""U25"",""P8"",""P2"",""P6"",""P16"",""U10"",""U28"",""U1""]","4","4","0","0","2","2","","1831","","","","","","","","","","","","","","","","","","","","","","","","","","","","","","","","","",""
"","","","","","html-button-response","3","2.0.0","25697","83","1","2026-06-08 18:48:01","segmentation_norming_randomized_order_maxrun_attention_v4","90.198.164.41","Mozilla/5.0 (Windows NT 10.0; Win64; x64) AppleWebKit/537.36 (KHTML, like Gecko) Chrome/148.0.0.0 Safari/537.36","WebKit","Chrome","148.0.0.0","Windows","10.0","https://uencdihehs.cognition.run/?PROLIFIC_PID=69ffbea27516957e550655d3&STUDY_ID=6a270c2e609d6ae583c06396&STUDY_ID=6a270c2e609d6ae583c06396&SESSION_ID=6a270e10d83e560726f73282?PROLIFIC_PID=69ffbea27516957e550655d3&SESSION_ID=6a270e10d83e560726f73282?","en-US,en;q=0.9","69ffbea27516957e550655d3","6a270c2e609d6ae583c06396","6a270e10d83e560726f73282?","69ffbea27516957e550655d3","6a270c2e609d6ae583c06396","6a270e10d83e560726f73282?","30","[20,21,14,18,23,15,9,7,19,3,5,27,13,30,11,12,17,24,26,29,4,22,25,8,2,6,16,10,28,1]","[""U20"",""P21"",""U14"",""U18"",""P23"",""P15"",""P9"",""U7"",""U19"",""P3"",""P5"",""P27"",""P13"",""U30"",""U11"",""P12"",""U17"",""P24"",""P26"",""P29"",""U4"",""P22"",""P25"",""U8"",""U2"",""U6"",""U16"",""P10"",""P28"",""P1""]","[""P20"",""U21"",""P14"",""P18"",""U23"",""U15"",""U9"",""P7"",""P19"",""U3"",""U5"",""U27"",""U13"",""P30"",""P11"",""U12"",""P17"",""U24"",""U26"",""U29"",""P4"",""U22"",""U25"",""P8"",""P2"",""P6"",""P16"",""U10"",""U28"",""U1""]","4","4","0","0","2","2","","11682","The experiment requires continuous attention and full-screen participation throughout the task.<br><br>You may be asked to exit the experiment and cancel your participation if you exit Full Screen Mode, switch tabs, or fail to meet the attention criteria more than the allowed number of times.<br><br>Please read the following instructions carefully.","0","","","","","","","","","","","","","","","","","","","","","","","","","","","","","","","",""
"","","","","","instructions","4","2.0.0","85797","83","1","2026-06-08 18:48:01","segmentation_norming_randomized_order_maxrun_attention_v4","90.198.164.41","Mozilla/5.0 (Windows NT 10.0; Win64; x64) AppleWebKit/537.36 (KHTML, like Gecko) Chrome/148.0.0.0 Safari/537.36","WebKit","Chrome","148.0.0.0","Windows","10.0","https://uencdihehs.cognition.run/?PROLIFIC_PID=69ffbea27516957e550655d3&STUDY_ID=6a270c2e609d6ae583c06396&STUDY_ID=6a270c2e609d6ae583c06396&SESSION_ID=6a270e10d83e560726f73282?PROLIFIC_PID=69ffbea27516957e550655d3&SESSION_ID=6a270e10d83e560726f73282?","en-US,en;q=0.9","69ffbea27516957e550655d3","6a270c2e609d6ae583c06396","6a270e10d83e560726f73282?","69ffbea27516957e550655d3","6a270c2e609d6ae583c06396","6a270e10d83e560726f73282?","30","[20,21,14,18,23,15,9,7,19,3,5,27,13,30,11,12,17,24,26,29,4,22,25,8,2,6,16,10,28,1]","[""U20"",""P21"",""U14"",""U18"",""P23"",""P15"",""P9"",""U7"",""U19"",""P3"",""P5"",""P27"",""P13"",""U30"",""U11"",""P12"",""U17"",""P24"",""P26"",""P29"",""U4"",""P22"",""P25"",""U8"",""U2"",""U6"",""U16"",""P10"",""P28"",""P1""]","[""P20"",""U21"",""P14"",""P18"",""U23"",""U15"",""U9"",""P7"",""P19"",""U3"",""U5"",""U27"",""U13"",""P30"",""P11"",""U12"",""P17"",""U24"",""U26"",""U29"",""P4"",""U22"",""U25"",""P8"",""P2"",""P6"",""P16"",""U10"",""U28"",""U1""]","4","4","0","0","2","2","[{""page_index"":0,""viewing_time"":60100}]","60100","","","","","","","","","","","","","","","","","","","","","","","","","","","","","","","","","",""
"","","","","","html-button-response","5","2.0.0","93039","83","1","2026-06-08 18:48:01","segmentation_norming_randomized_order_maxrun_attention_v4","90.198.164.41","Mozilla/5.0 (Windows NT 10.0; Win64; x64) AppleWebKit/537.36 (KHTML, like Gecko) Chrome/148.0.0.0 Safari/537.36","WebKit","Chrome","148.0.0.0","Windows","10.0","https://uencdihehs.cognition.run/?PROLIFIC_PID=69ffbea27516957e550655d3&STUDY_ID=6a270c2e609d6ae583c06396&STUDY_ID=6a270c2e609d6ae583c06396&SESSION_ID=6a270e10d83e560726f73282?PROLIFIC_PID=69ffbea27516957e550655d3&SESSION_ID=6a270e10d83e560726f73282?","en-US,en;q=0.9","69ffbea27516957e550655d3","6a270c2e609d6ae583c06396","6a270e10d83e560726f73282?","69ffbea27516957e550655d3","6a270c2e609d6ae583c06396","6a270e10d83e560726f73282?","30","[20,21,14,18,23,15,9,7,19,3,5,27,13,30,11,12,17,24,26,29,4,22,25,8,2,6,16,10,28,1]","[""U20"",""P21"",""U14"",""U18"",""P23"",""P15"",""P9"",""U7"",""U19"",""P3"",""P5"",""P27"",""P13"",""U30"",""U11"",""P12"",""U17"",""P24"",""P26"",""P29"",""U4"",""P22"",""P25"",""U8"",""U2"",""U6"",""U16"",""P10"",""P28"",""P1""]","[""P20"",""U21"",""P14"",""P18"",""U23"",""U15"",""U9"",""P7"",""P19"",""U3"",""U5"",""U27"",""U13"",""P30"",""P11"",""U12"",""P17"",""U24"",""U26"",""U29"",""P4"",""U22"",""U25"",""P8"",""P2"",""P6"",""P16"",""U10"",""U28"",""U1""]","4","4","0","0","2","2","","7241","Please pay attention when watching videos and marking boundaries.<br><br>There are several hidden attention criteria to make sure you watch the videos carefully.<br><br>If you fail these hidden criteria more than the allowed number of times, you may be asked to exit the experiment.","0","","","","","","","","","","","","","","","","","","","","","","","","","","","","","","","",""
"","","","","","survey-multi-choice","6","2.0.0","113923","83","1","2026-06-08 18:48:01","segmentation_norming_randomized_order_maxrun_attention_v4","90.198.164.41","Mozilla/5.0 (Windows NT 10.0; Win64; x64) AppleWebKit/537.36 (KHTML, like Gecko) Chrome/148.0.0.0 Safari/537.36","WebKit","Chrome","148.0.0.0","Windows","10.0","https://uencdihehs.cognition.run/?PROLIFIC_PID=69ffbea27516957e550655d3&STUDY_ID=6a270c2e609d6ae583c06396&STUDY_ID=6a270c2e609d6ae583c06396&SESSION_ID=6a270e10d83e560726f73282?PROLIFIC_PID=69ffbea27516957e550655d3&SESSION_ID=6a270e10d83e560726f73282?","en-US,en;q=0.9","69ffbea27516957e550655d3","6a270c2e609d6ae583c06396","6a270e10d83e560726f73282?","69ffbea27516957e550655d3","6a270c2e609d6ae583c06396","6a270e10d83e560726f73282?","30","[20,21,14,18,23,15,9,7,19,3,5,27,13,30,11,12,17,24,26,29,4,22,25,8,2,6,16,10,28,1]","[""U20"",""P21"",""U14"",""U18"",""P23"",""P15"",""P9"",""U7"",""U19"",""P3"",""P5"",""P27"",""P13"",""U30"",""U11"",""P12"",""U17"",""P24"",""P26"",""P29"",""U4"",""P22"",""P25"",""U8"",""U2"",""U6"",""U16"",""P10"",""P28"",""P1""]","[""P20"",""U21"",""P14"",""P18"",""U23"",""U15"",""U9"",""P7"",""P19"",""U3"",""U5"",""U27"",""U13"",""P30"",""P11"",""U12"",""P17"",""U24"",""U26"",""U29"",""P4"",""U22"",""U25"",""P8"",""P2"",""P6"",""P16"",""U10"",""U28"",""U1""]","4","4","0","0","2","2","","20883","","{""spacebar_question"":""Between the smallest meaningful events or actions"",""attention_question"":""Press space bar to segment the video""}","comprehension_check","[0,1]","Between the smallest meaningful events or actions","Press space bar to segment the video","true","true","true","","","","","","","","","","","","","","","","","","","","","","","","",""
"","","","","","html-button-response","8","2.0.0","130765","83","1","2026-06-08 18:48:01","segmentation_norming_randomized_order_maxrun_attention_v4","90.198.164.41","Mozilla/5.0 (Windows NT 10.0; Win64; x64) AppleWebKit/537.36 (KHTML, like Gecko) Chrome/148.0.0.0 Safari/537.36","WebKit","Chrome","148.0.0.0","Windows","10.0","https://uencdihehs.cognition.run/?PROLIFIC_PID=69ffbea27516957e550655d3&STUDY_ID=6a270c2e609d6ae583c06396&STUDY_ID=6a270c2e609d6ae583c06396&SESSION_ID=6a270e10d83e560726f73282?PROLIFIC_PID=69ffbea27516957e550655d3&SESSION_ID=6a270e10d83e560726f73282?","en-US,en;q=0.9","69ffbea27516957e550655d3","6a270c2e609d6ae583c06396","6a270e10d83e560726f73282?","69ffbea27516957e550655d3","6a270c2e609d6ae583c06396","6a270e10d83e560726f73282?","30","[20,21,14,18,23,15,9,7,19,3,5,27,13,30,11,12,17,24,26,29,4,22,25,8,2,6,16,10,28,1]","[""U20"",""P21"",""U14"",""U18"",""P23"",""P15"",""P9"",""U7"",""U19"",""P3"",""P5"",""P27"",""P13"",""U30"",""U11"",""P12"",""U17"",""P24"",""P26"",""P29"",""U4"",""P22"",""P25"",""U8"",""U2"",""U6"",""U16"",""P10"",""P28"",""P1""]","[""P20"",""U21"",""P14"",""P18"",""U23"",""U15"",""U9"",""P7"",""P19"",""U3"",""U5"",""U27"",""U13"",""P30"",""P11"",""U12"",""P17"",""U24"",""U26"",""U29"",""P4"",""U22"",""U25"",""P8"",""P2"",""P6"",""P16"",""U10"",""U28"",""U1""]","4","4","0","0","2","2","","16841","You have learned the instructions for the task! Here is a demo trial.<br><br>Like what you will do in the main experiment,<br><br> you will watch a movie clip and at the same time mark off the activity in the movie into the <strong>smallest meaningful units</strong> that seem natural and meaningful to you.<br><br>Remember, tap the <strong>SPACE BAR</strong> to mark off a boundary between two <strong>smallest meaningful units</strong> of activity.<br><br>A green bar will appear at the bottom of the screen when you press the button.<br><br>","0","","","","","","","","","","","","","","","","","","","","","","","","","","","","","","","",""
"","","","","","video-keyboard-response","9","2.0.0","147232","83","1","2026-06-08 18:48:01","segmentation_norming_randomized_order_maxrun_attention_v4","90.198.164.41","Mozilla/5.0 (Windows NT 10.0; Win64; x64) AppleWebKit/537.36 (KHTML, like Gecko) Chrome/148.0.0.0 Safari/537.36","WebKit","Chrome","148.0.0.0","Windows","10.0","https://uencdihehs.cognition.run/?PROLIFIC_PID=69ffbea27516957e550655d3&STUDY_ID=6a270c2e609d6ae583c06396&STUDY_ID=6a270c2e609d6ae583c06396&SESSION_ID=6a270e10d83e560726f73282?PROLIFIC_PID=69ffbea27516957e550655d3&SESSION_ID=6a270e10d83e560726f73282?","en-US,en;q=0.9","69ffbea27516957e550655d3","6a270c2e609d6ae583c06396","6a270e10d83e560726f73282?","69ffbea27516957e550655d3","6a270c2e609d6ae583c06396","6a270e10d83e560726f73282?","30","[20,21,14,18,23,15,9,7,19,3,5,27,13,30,11,12,17,24,26,29,4,22,25,8,2,6,16,10,28,1]","[""U20"",""P21"",""U14"",""U18"",""P23"",""P15"",""P9"",""U7"",""U19"",""P3"",""P5"",""P27"",""P13"",""U30"",""U11"",""P12"",""U17"",""P24"",""P26"",""P29"",""U4"",""P22"",""P25"",""U8"",""U2"",""U6"",""U16"",""P10"",""P28"",""P1""]","[""P20"",""U21"",""P14"",""P18"",""U23"",""U15"",""U9"",""P7"",""P19"",""U3"",""U5"",""U27"",""U13"",""P30"",""P11"",""U12"",""P17"",""U24"",""U26"",""U29"",""P4"",""U22"",""U25"",""P8"",""P2"",""P6"",""P16"",""U10"",""U28"",""U1""]","4","4","0","0","2","2","","null","[""library_v1.mp4""]","null","demo_video","","","","","","","1","demo1","library_v1.mp4","library","Demo","[4.252172,15.14081]","2","","","","","","","","","","","","","","","","","",""
"","","","","","call-function","10","2.0.0","147234","83","1","2026-06-08 18:48:01","segmentation_norming_randomized_order_maxrun_attention_v4","90.198.164.41","Mozilla/5.0 (Windows NT 10.0; Win64; x64) AppleWebKit/537.36 (KHTML, like Gecko) Chrome/148.0.0.0 Safari/537.36","WebKit","Chrome","148.0.0.0","Windows","10.0","https://uencdihehs.cognition.run/?PROLIFIC_PID=69ffbea27516957e550655d3&STUDY_ID=6a270c2e609d6ae583c06396&STUDY_ID=6a270c2e609d6ae583c06396&SESSION_ID=6a270e10d83e560726f73282?PROLIFIC_PID=69ffbea27516957e550655d3&SESSION_ID=6a270e10d83e560726f73282?","en-US,en;q=0.9","69ffbea27516957e550655d3","6a270c2e609d6ae583c06396","6a270e10d83e560726f73282?","69ffbea27516957e550655d3","6a270c2e609d6ae583c06396","6a270e10d83e560726f73282?","30","[20,21,14,18,23,15,9,7,19,3,5,27,13,30,11,12,17,24,26,29,4,22,25,8,2,6,16,10,28,1]","[""U20"",""P21"",""U14"",""U18"",""P23"",""P15"",""P9"",""U7"",""U19"",""P3"",""P5"",""P27"",""P13"",""U30"",""U11"",""P12"",""U17"",""P24"",""P26"",""P29"",""U4"",""P22"",""P25"",""U8"",""U2"",""U6"",""U16"",""P10"",""P28"",""P1""]","[""P20"",""U21"",""P14"",""P18"",""U23"",""U15"",""U9"",""P7"",""P19"",""U3"",""U5"",""U27"",""U13"",""P30"",""P11"",""U12"",""P17"",""U24"",""U26"",""U29"",""P4"",""U22"",""U25"",""P8"",""P2"",""P6"",""P16"",""U10"",""U28"",""U1""]","4","4","0","0","2","2","","","","","","","","","","","","","","","","","","","","","","","","","","","","","","","","","","","",""
"","","","","","html-button-response","11","2.0.0","157284","83","1","2026-06-08 18:48:01","segmentation_norming_randomized_order_maxrun_attention_v4","90.198.164.41","Mozilla/5.0 (Windows NT 10.0; Win64; x64) AppleWebKit/537.36 (KHTML, like Gecko) Chrome/148.0.0.0 Safari/537.36","WebKit","Chrome","148.0.0.0","Windows","10.0","https://uencdihehs.cognition.run/?PROLIFIC_PID=69ffbea27516957e550655d3&STUDY_ID=6a270c2e609d6ae583c06396&STUDY_ID=6a270c2e609d6ae583c06396&SESSION_ID=6a270e10d83e560726f73282?PROLIFIC_PID=69ffbea27516957e550655d3&SESSION_ID=6a270e10d83e560726f73282?","en-US,en;q=0.9","69ffbea27516957e550655d3","6a270c2e609d6ae583c06396","6a270e10d83e560726f73282?","69ffbea27516957e550655d3","6a270c2e609d6ae583c06396","6a270e10d83e560726f73282?","30","[20,21,14,18,23,15,9,7,19,3,5,27,13,30,11,12,17,24,26,29,4,22,25,8,2,6,16,10,28,1]","[""U20"",""P21"",""U14"",""U18"",""P23"",""P15"",""P9"",""U7"",""U19"",""P3"",""P5"",""P27"",""P13"",""U30"",""U11"",""P12"",""U17"",""P24"",""P26"",""P29"",""U4"",""P22"",""P25"",""U8"",""U2"",""U6"",""U16"",""P10"",""P28"",""P1""]","[""P20"",""U21"",""P14"",""P18"",""U23"",""U15"",""U9"",""P7"",""P19"",""U3"",""U5"",""U27"",""U13"",""P30"",""P11"",""U12"",""P17"",""U24"",""U26"",""U29"",""P4"",""U22"",""U25"",""P8"",""P2"",""P6"",""P16"",""U10"",""U28"",""U1""]","4","4","0","0","2","2","","10048","Usually people tend to press the button more times than you did.<br><br>As a reminder, press the <strong>SPACE BAR</strong> whenever one <strong>smallest meaningful unit</strong> of activity ends and another begins.<br><br>Let's try another demo trial.<br><br>","0","demo_feedback","","","","","","","","","","","","","","","","","","","","","","","","","","","","","","",""
"","","","","","video-keyboard-response","12","2.0.0","192792","83","1","2026-06-08 18:48:01","segmentation_norming_randomized_order_maxrun_attention_v4","90.198.164.41","Mozilla/5.0 (Windows NT 10.0; Win64; x64) AppleWebKit/537.36 (KHTML, like Gecko) Chrome/148.0.0.0 Safari/537.36","WebKit","Chrome","148.0.0.0","Windows","10.0","https://uencdihehs.cognition.run/?PROLIFIC_PID=69ffbea27516957e550655d3&STUDY_ID=6a270c2e609d6ae583c06396&STUDY_ID=6a270c2e609d6ae583c06396&SESSION_ID=6a270e10d83e560726f73282?PROLIFIC_PID=69ffbea27516957e550655d3&SESSION_ID=6a270e10d83e560726f73282?","en-US,en;q=0.9","69ffbea27516957e550655d3","6a270c2e609d6ae583c06396","6a270e10d83e560726f73282?","69ffbea27516957e550655d3","6a270c2e609d6ae583c06396","6a270e10d83e560726f73282?","30","[20,21,14,18,23,15,9,7,19,3,5,27,13,30,11,12,17,24,26,29,4,22,25,8,2,6,16,10,28,1]","[""U20"",""P21"",""U14"",""U18"",""P23"",""P15"",""P9"",""U7"",""U19"",""P3"",""P5"",""P27"",""P13"",""U30"",""U11"",""P12"",""U17"",""P24"",""P26"",""P29"",""U4"",""P22"",""P25"",""U8"",""U2"",""U6"",""U16"",""P10"",""P28"",""P1""]","[""P20"",""U21"",""P14"",""P18"",""U23"",""U15"",""U9"",""P7"",""P19"",""U3"",""U5"",""U27"",""U13"",""P30"",""P11"",""U12"",""P17"",""U24"",""U26"",""U29"",""P4"",""U22"",""U25"",""P8"",""P2"",""P6"",""P16"",""U10"",""U28"",""U1""]","4","4","0","0","2","2","","null","[""garden_v1.mp4""]","null","demo_video","","","","","","","2","demo2","garden_v1.mp4","garden","Demo","[2.808784,3.919729,5.768685,9.736004,12.488785,13.416231,14.98421,18.608133,19.880301,21.272226,22.544134,23.759874,24.992074,29.432011,33.160151]","15","","","","","","","","","","","","","","","","","",""
"","","","","","call-function","13","2.0.0","192792","83","1","2026-06-08 18:48:01","segmentation_norming_randomized_order_maxrun_attention_v4","90.198.164.41","Mozilla/5.0 (Windows NT 10.0; Win64; x64) AppleWebKit/537.36 (KHTML, like Gecko) Chrome/148.0.0.0 Safari/537.36","WebKit","Chrome","148.0.0.0","Windows","10.0","https://uencdihehs.cognition.run/?PROLIFIC_PID=69ffbea27516957e550655d3&STUDY_ID=6a270c2e609d6ae583c06396&STUDY_ID=6a270c2e609d6ae583c06396&SESSION_ID=6a270e10d83e560726f73282?PROLIFIC_PID=69ffbea27516957e550655d3&SESSION_ID=6a270e10d83e560726f73282?","en-US,en;q=0.9","69ffbea27516957e550655d3","6a270c2e609d6ae583c06396","6a270e10d83e560726f73282?","69ffbea27516957e550655d3","6a270c2e609d6ae583c06396","6a270e10d83e560726f73282?","30","[20,21,14,18,23,15,9,7,19,3,5,27,13,30,11,12,17,24,26,29,4,22,25,8,2,6,16,10,28,1]","[""U20"",""P21"",""U14"",""U18"",""P23"",""P15"",""P9"",""U7"",""U19"",""P3"",""P5"",""P27"",""P13"",""U30"",""U11"",""P12"",""U17"",""P24"",""P26"",""P29"",""U4"",""P22"",""P25"",""U8"",""U2"",""U6"",""U16"",""P10"",""P28"",""P1""]","[""P20"",""U21"",""P14"",""P18"",""U23"",""U15"",""U9"",""P7"",""P19"",""U3"",""U5"",""U27"",""U13"",""P30"",""P11"",""U12"",""P17"",""U24"",""U26"",""U29"",""P4"",""U22"",""U25"",""P8"",""P2"",""P6"",""P16"",""U10"",""U28"",""U1""]","4","4","0","0","2","2","","","","","","","","","","","","","","","","","","","","","","","","","","","","","","","","","","","",""
"","","","","","html-button-response","14","2.0.0","202231","83","1","2026-06-08 18:48:01","segmentation_norming_randomized_order_maxrun_attention_v4","90.198.164.41","Mozilla/5.0 (Windows NT 10.0; Win64; x64) AppleWebKit/537.36 (KHTML, like Gecko) Chrome/148.0.0.0 Safari/537.36","WebKit","Chrome","148.0.0.0","Windows","10.0","https://uencdihehs.cognition.run/?PROLIFIC_PID=69ffbea27516957e550655d3&STUDY_ID=6a270c2e609d6ae583c06396&STUDY_ID=6a270c2e609d6ae583c06396&SESSION_ID=6a270e10d83e560726f73282?PROLIFIC_PID=69ffbea27516957e550655d3&SESSION_ID=6a270e10d83e560726f73282?","en-US,en;q=0.9","69ffbea27516957e550655d3","6a270c2e609d6ae583c06396","6a270e10d83e560726f73282?","69ffbea27516957e550655d3","6a270c2e609d6ae583c06396","6a270e10d83e560726f73282?","30","[20,21,14,18,23,15,9,7,19,3,5,27,13,30,11,12,17,24,26,29,4,22,25,8,2,6,16,10,28,1]","[""U20"",""P21"",""U14"",""U18"",""P23"",""P15"",""P9"",""U7"",""U19"",""P3"",""P5"",""P27"",""P13"",""U30"",""U11"",""P12"",""U17"",""P24"",""P26"",""P29"",""U4"",""P22"",""P25"",""U8"",""U2"",""U6"",""U16"",""P10"",""P28"",""P1""]","[""P20"",""U21"",""P14"",""P18"",""U23"",""U15"",""U9"",""P7"",""P19"",""U3"",""U5"",""U27"",""U13"",""P30"",""P11"",""U12"",""P17"",""U24"",""U26"",""U29"",""P4"",""U22"",""U25"",""P8"",""P2"",""P6"",""P16"",""U10"",""U28"",""U1""]","4","4","0","0","2","2","","9438","Great! Hopefully you got an idea of what a meaningful unit is.<br><br>Remember that there is no right or wrong answer.<br><br>We just want to know which parts of the activity seem natural and meaningful to you.<br><br>Now the main experiment starts.<br><br>For each clip, while watching, remember to press the SPACE BAR whenever one <strong>smallest meaningful unit</strong> of activity ends and another begins.<br><br>","0","demo_feedback","","","","","","","","","","","","","","","","","","","","","","","","","","","","","","",""
"true","false","[]","[]","[]","preload","15","2.0.0","227756","83","1","2026-06-08 18:48:01","segmentation_norming_randomized_order_maxrun_attention_v4","90.198.164.41","Mozilla/5.0 (Windows NT 10.0; Win64; x64) AppleWebKit/537.36 (KHTML, like Gecko) Chrome/148.0.0.0 Safari/537.36","WebKit","Chrome","148.0.0.0","Windows","10.0","https://uencdihehs.cognition.run/?PROLIFIC_PID=69ffbea27516957e550655d3&STUDY_ID=6a270c2e609d6ae583c06396&STUDY_ID=6a270c2e609d6ae583c06396&SESSION_ID=6a270e10d83e560726f73282?PROLIFIC_PID=69ffbea27516957e550655d3&SESSION_ID=6a270e10d83e560726f73282?","en-US,en;q=0.9","69ffbea27516957e550655d3","6a270c2e609d6ae583c06396","6a270e10d83e560726f73282?","69ffbea27516957e550655d3","6a270c2e609d6ae583c06396","6a270e10d83e560726f73282?","30","[20,21,14,18,23,15,9,7,19,3,5,27,13,30,11,12,17,24,26,29,4,22,25,8,2,6,16,10,28,1]","[""U20"",""P21"",""U14"",""U18"",""P23"",""P15"",""P9"",""U7"",""U19"",""P3"",""P5"",""P27"",""P13"",""U30"",""U11"",""P12"",""U17"",""P24"",""P26"",""P29"",""U4"",""P22"",""P25"",""U8"",""U2"",""U6"",""U16"",""P10"",""P28"",""P1""]","[""P20"",""U21"",""P14"",""P18"",""U23"",""U15"",""U9"",""P7"",""P19"",""U3"",""U5"",""U27"",""U13"",""P30"",""P11"",""U12"",""P17"",""U24"",""U26"",""U29"",""P4"",""U22"",""U25"",""P8"",""P2"",""P6"",""P16"",""U10"",""U28"",""U1""]","4","4","0","0","2","2","","","","","","","","","","","","","","","","","","","","","","","","","","","","","","","","","","","",""
"","","","","","video-keyboard-response","16","2.0.0","252442","83","1","2026-06-08 18:48:01","segmentation_norming_randomized_order_maxrun_attention_v4","90.198.164.41","Mozilla/5.0 (Windows NT 10.0; Win64; x64) AppleWebKit/537.36 (KHTML, like Gecko) Chrome/148.0.0.0 Safari/537.36","WebKit","Chrome","148.0.0.0","Windows","10.0","https://uencdihehs.cognition.run/?PROLIFIC_PID=69ffbea27516957e550655d3&STUDY_ID=6a270c2e609d6ae583c06396&STUDY_ID=6a270c2e609d6ae583c06396&SESSION_ID=6a270e10d83e560726f73282?PROLIFIC_PID=69ffbea27516957e550655d3&SESSION_ID=6a270e10d83e560726f73282?","en-US,en;q=0.9","69ffbea27516957e550655d3","6a270c2e609d6ae583c06396","6a270e10d83e560726f73282?","69ffbea27516957e550655d3","6a270c2e609d6ae583c06396","6a270e10d83e560726f73282?","30","[20,21,14,18,23,15,9,7,19,3,5,27,13,30,11,12,17,24,26,29,4,22,25,8,2,6,16,10,28,1]","[""U20"",""P21"",""U14"",""U18"",""P23"",""P15"",""P9"",""U7"",""U19"",""P3"",""P5"",""P27"",""P13"",""U30"",""U11"",""P12"",""U17"",""P24"",""P26"",""P29"",""U4"",""P22"",""P25"",""U8"",""U2"",""U6"",""U16"",""P10"",""P28"",""P1""]","[""P20"",""U21"",""P14"",""P18"",""U23"",""U15"",""U9"",""P7"",""P19"",""U3"",""U5"",""U27"",""U13"",""P30"",""P11"",""U12"",""P17"",""U24"",""U26"",""U29"",""P4"",""U22"",""U25"",""P8"",""P2"",""P6"",""P16"",""U10"",""U28"",""U1""]","4","4","0","0","2","2","","null","[""poster_v2.mp4""]","null","segmentation_video","","","","","","","","","poster_v2.mp4","poster","Unpredictable","[1.38632,2.785867,4.849732,9.249729,11.14652,12.178252,14.634074,17.84948,18.857857,19.89832,21.729451,22.44191]","12","","U20","20","1","1","0.7124589999999991","false","false","false","","false","0","0","false","false","false","false",""
"","","","","","survey-multi-choice","19","2.0.0","310871","83","1","2026-06-08 18:48:01","segmentation_norming_randomized_order_maxrun_attention_v4","90.198.164.41","Mozilla/5.0 (Windows NT 10.0; Win64; x64) AppleWebKit/537.36 (KHTML, like Gecko) Chrome/148.0.0.0 Safari/537.36","WebKit","Chrome","148.0.0.0","Windows","10.0","https://uencdihehs.cognition.run/?PROLIFIC_PID=69ffbea27516957e550655d3&STUDY_ID=6a270c2e609d6ae583c06396&STUDY_ID=6a270c2e609d6ae583c06396&SESSION_ID=6a270e10d83e560726f73282?PROLIFIC_PID=69ffbea27516957e550655d3&SESSION_ID=6a270e10d83e560726f73282?","en-US,en;q=0.9","69ffbea27516957e550655d3","6a270c2e609d6ae583c06396","6a270e10d83e560726f73282?","69ffbea27516957e550655d3","6a270c2e609d6ae583c06396","6a270e10d83e560726f73282?","30","[20,21,14,18,23,15,9,7,19,3,5,27,13,30,11,12,17,24,26,29,4,22,25,8,2,6,16,10,28,1]","[""U20"",""P21"",""U14"",""U18"",""P23"",""P15"",""P9"",""U7"",""U19"",""P3"",""P5"",""P27"",""P13"",""U30"",""U11"",""P12"",""U17"",""P24"",""P26"",""P29"",""U4"",""P22"",""P25"",""U8"",""U2"",""U6"",""U16"",""P10"",""P28"",""P1""]","[""P20"",""U21"",""P14"",""P18"",""U23"",""U15"",""U9"",""P7"",""P19"",""U3"",""U5"",""U27"",""U13"",""P30"",""P11"",""U12"",""P17"",""U24"",""U26"",""U29"",""P4"",""U22"",""U25"",""P8"",""P2"",""P6"",""P16"",""U10"",""U28"",""U1""]","4","4","0","0","2","2","","58426","","{""confidence_rating"":""Moderately confident""}","confidence_question","[0]","","","","","","","","","poster","Unpredictable","","","","U20","20","1","1","","","","","","","","","","","","","Moderately confident"
"","","","","","video-keyboard-response","20","2.0.0","355230","83","1","2026-06-08 18:48:01","segmentation_norming_randomized_order_maxrun_attention_v4","90.198.164.41","Mozilla/5.0 (Windows NT 10.0; Win64; x64) AppleWebKit/537.36 (KHTML, like Gecko) Chrome/148.0.0.0 Safari/537.36","WebKit","Chrome","148.0.0.0","Windows","10.0","https://uencdihehs.cognition.run/?PROLIFIC_PID=69ffbea27516957e550655d3&STUDY_ID=6a270c2e609d6ae583c06396&STUDY_ID=6a270c2e609d6ae583c06396&SESSION_ID=6a270e10d83e560726f73282?PROLIFIC_PID=69ffbea27516957e550655d3&SESSION_ID=6a270e10d83e560726f73282?","en-US,en;q=0.9","69ffbea27516957e550655d3","6a270c2e609d6ae583c06396","6a270e10d83e560726f73282?","69ffbea27516957e550655d3","6a270c2e609d6ae583c06396","6a270e10d83e560726f73282?","30","[20,21,14,18,23,15,9,7,19,3,5,27,13,30,11,12,17,24,26,29,4,22,25,8,2,6,16,10,28,1]","[""U20"",""P21"",""U14"",""U18"",""P23"",""P15"",""P9"",""U7"",""U19"",""P3"",""P5"",""P27"",""P13"",""U30"",""U11"",""P12"",""U17"",""P24"",""P26"",""P29"",""U4"",""P22"",""P25"",""U8"",""U2"",""U6"",""U16"",""P10"",""P28"",""P1""]","[""P20"",""U21"",""P14"",""P18"",""U23"",""U15"",""U9"",""P7"",""P19"",""U3"",""U5"",""U27"",""U13"",""P30"",""P11"",""U12"",""P17"",""U24"",""U26"",""U29"",""P4"",""U22"",""U25"",""P8"",""P2"",""P6"",""P16"",""U10"",""U28"",""U1""]","4","4","0","0","2","2","","null","[""printer_v1.mp4""]","null","segmentation_video","","","","","","","","","printer_v1.mp4","printer","Predictable","[3.777716,8.394087,12.426358,17.57869,19.570429,21.218666,23.107132,23.793924,28.169962,29.39475,31.889878,33.786769,37.97859,42.634163]","14","","P21","21","1","2","0.6867920000000005","false","false","false","","false","0","0","false","false","false","false",""
"","","","","","survey-multi-choice","23","2.0.0","359597","83","1","2026-06-08 18:48:01","segmentation_norming_randomized_order_maxrun_attention_v4","90.198.164.41","Mozilla/5.0 (Windows NT 10.0; Win64; x64) AppleWebKit/537.36 (KHTML, like Gecko) Chrome/148.0.0.0 Safari/537.36","WebKit","Chrome","148.0.0.0","Windows","10.0","https://uencdihehs.cognition.run/?PROLIFIC_PID=69ffbea27516957e550655d3&STUDY_ID=6a270c2e609d6ae583c06396&STUDY_ID=6a270c2e609d6ae583c06396&SESSION_ID=6a270e10d83e560726f73282?PROLIFIC_PID=69ffbea27516957e550655d3&SESSION_ID=6a270e10d83e560726f73282?","en-US,en;q=0.9","69ffbea27516957e550655d3","6a270c2e609d6ae583c06396","6a270e10d83e560726f73282?","69ffbea27516957e550655d3","6a270c2e609d6ae583c06396","6a270e10d83e560726f73282?","30","[20,21,14,18,23,15,9,7,19,3,5,27,13,30,11,12,17,24,26,29,4,22,25,8,2,6,16,10,28,1]","[""U20"",""P21"",""U14"",""U18"",""P23"",""P15"",""P9"",""U7"",""U19"",""P3"",""P5"",""P27"",""P13"",""U30"",""U11"",""P12"",""U17"",""P24"",""P26"",""P29"",""U4"",""P22"",""P25"",""U8"",""U2"",""U6"",""U16"",""P10"",""P28"",""P1""]","[""P20"",""U21"",""P14"",""P18"",""U23"",""U15"",""U9"",""P7"",""P19"",""U3"",""U5"",""U27"",""U13"",""P30"",""P11"",""U12"",""P17"",""U24"",""U26"",""U29"",""P4"",""U22"",""U25"",""P8"",""P2"",""P6"",""P16"",""U10"",""U28"",""U1""]","4","4","0","0","2","2","","4366","","{""confidence_rating"":""Moderately confident""}","confidence_question","[0]","","","","","","","","","printer","Predictable","","","","P21","21","1","2","","","","","","","","","","","","","Moderately confident"
"","","","","","video-keyboard-response","24","2.0.0","389230","83","1","2026-06-08 18:48:01","segmentation_norming_randomized_order_maxrun_attention_v4","90.198.164.41","Mozilla/5.0 (Windows NT 10.0; Win64; x64) AppleWebKit/537.36 (KHTML, like Gecko) Chrome/148.0.0.0 Safari/537.36","WebKit","Chrome","148.0.0.0","Windows","10.0","https://uencdihehs.cognition.run/?PROLIFIC_PID=69ffbea27516957e550655d3&STUDY_ID=6a270c2e609d6ae583c06396&STUDY_ID=6a270c2e609d6ae583c06396&SESSION_ID=6a270e10d83e560726f73282?PROLIFIC_PID=69ffbea27516957e550655d3&SESSION_ID=6a270e10d83e560726f73282?","en-US,en;q=0.9","69ffbea27516957e550655d3","6a270c2e609d6ae583c06396","6a270e10d83e560726f73282?","69ffbea27516957e550655d3","6a270c2e609d6ae583c06396","6a270e10d83e560726f73282?","30","[20,21,14,18,23,15,9,7,19,3,5,27,13,30,11,12,17,24,26,29,4,22,25,8,2,6,16,10,28,1]","[""U20"",""P21"",""U14"",""U18"",""P23"",""P15"",""P9"",""U7"",""U19"",""P3"",""P5"",""P27"",""P13"",""U30"",""U11"",""P12"",""U17"",""P24"",""P26"",""P29"",""U4"",""P22"",""P25"",""U8"",""U2"",""U6"",""U16"",""P10"",""P28"",""P1""]","[""P20"",""U21"",""P14"",""P18"",""U23"",""U15"",""U9"",""P7"",""P19"",""U3"",""U5"",""U27"",""U13"",""P30"",""P11"",""U12"",""P17"",""U24"",""U26"",""U29"",""P4"",""U22"",""U25"",""P8"",""P2"",""P6"",""P16"",""U10"",""U28"",""U1""]","4","4","0","0","2","2","","null","[""lamp_v2.mp4""]","null","segmentation_video","","","","","","","","","lamp_v2.mp4","lamp","Unpredictable","[0.974737,5.621882,8.118355,10.230282,12.430207,17.197883,19.373571,23.734709,25.229783,28.774114]","10","","U14","14","1","3","1.4950740000000025","false","false","false","","false","0","0","false","false","false","false",""
"","","","","","survey-multi-choice","27","2.0.0","392925","83","1","2026-06-08 18:48:01","segmentation_norming_randomized_order_maxrun_attention_v4","90.198.164.41","Mozilla/5.0 (Windows NT 10.0; Win64; x64) AppleWebKit/537.36 (KHTML, like Gecko) Chrome/148.0.0.0 Safari/537.36","WebKit","Chrome","148.0.0.0","Windows","10.0","https://uencdihehs.cognition.run/?PROLIFIC_PID=69ffbea27516957e550655d3&STUDY_ID=6a270c2e609d6ae583c06396&STUDY_ID=6a270c2e609d6ae583c06396&SESSION_ID=6a270e10d83e560726f73282?PROLIFIC_PID=69ffbea27516957e550655d3&SESSION_ID=6a270e10d83e560726f73282?","en-US,en;q=0.9","69ffbea27516957e550655d3","6a270c2e609d6ae583c06396","6a270e10d83e560726f73282?","69ffbea27516957e550655d3","6a270c2e609d6ae583c06396","6a270e10d83e560726f73282?","30","[20,21,14,18,23,15,9,7,19,3,5,27,13,30,11,12,17,24,26,29,4,22,25,8,2,6,16,10,28,1]","[""U20"",""P21"",""U14"",""U18"",""P23"",""P15"",""P9"",""U7"",""U19"",""P3"",""P5"",""P27"",""P13"",""U30"",""U11"",""P12"",""U17"",""P24"",""P26"",""P29"",""U4"",""P22"",""P25"",""U8"",""U2"",""U6"",""U16"",""P10"",""P28"",""P1""]","[""P20"",""U21"",""P14"",""P18"",""U23"",""U15"",""U9"",""P7"",""P19"",""U3"",""U5"",""U27"",""U13"",""P30"",""P11"",""U12"",""P17"",""U24"",""U26"",""U29"",""P4"",""U22"",""U25"",""P8"",""P2"",""P6"",""P16"",""U10"",""U28"",""U1""]","4","4","0","0","2","2","","3693","","{""confidence_rating"":""Moderately confident""}","confidence_question","[0]","","","","","","","","","lamp","Unpredictable","","","","U14","14","1","3","","","","","","","","","","","","","Moderately confident"
"","","","","","video-keyboard-response","28","2.0.0","417590","83","1","2026-06-08 18:48:01","segmentation_norming_randomized_order_maxrun_attention_v4","90.198.164.41","Mozilla/5.0 (Windows NT 10.0; Win64; x64) AppleWebKit/537.36 (KHTML, like Gecko) Chrome/148.0.0.0 Safari/537.36","WebKit","Chrome","148.0.0.0","Windows","10.0","https://uencdihehs.cognition.run/?PROLIFIC_PID=69ffbea27516957e550655d3&STUDY_ID=6a270c2e609d6ae583c06396&STUDY_ID=6a270c2e609d6ae583c06396&SESSION_ID=6a270e10d83e560726f73282?PROLIFIC_PID=69ffbea27516957e550655d3&SESSION_ID=6a270e10d83e560726f73282?","en-US,en;q=0.9","69ffbea27516957e550655d3","6a270c2e609d6ae583c06396","6a270e10d83e560726f73282?","69ffbea27516957e550655d3","6a270c2e609d6ae583c06396","6a270e10d83e560726f73282?","30","[20,21,14,18,23,15,9,7,19,3,5,27,13,30,11,12,17,24,26,29,4,22,25,8,2,6,16,10,28,1]","[""U20"",""P21"",""U14"",""U18"",""P23"",""P15"",""P9"",""U7"",""U19"",""P3"",""P5"",""P27"",""P13"",""U30"",""U11"",""P12"",""U17"",""P24"",""P26"",""P29"",""U4"",""P22"",""P25"",""U8"",""U2"",""U6"",""U16"",""P10"",""P28"",""P1""]","[""P20"",""U21"",""P14"",""P18"",""U23"",""U15"",""U9"",""P7"",""P19"",""U3"",""U5"",""U27"",""U13"",""P30"",""P11"",""U12"",""P17"",""U24"",""U26"",""U29"",""P4"",""U22"",""U25"",""P8"",""P2"",""P6"",""P16"",""U10"",""U28"",""U1""]","4","4","0","0","2","2","","null","[""painting_v2.mp4""]","null","segmentation_video","","","","","","","","","painting_v2.mp4","painting","Unpredictable","[2.806289,3.966327,7.854137,9.861763,11.76637,13.197783,16.318143,18.550113,20.662338,22.470389,23.614432]","11","","U18","18","1","4","1.144043","false","false","false","","false","0","0","false","false","false","false",""
"","","","","","survey-multi-choice","31","2.0.0","421437","83","1","2026-06-08 18:48:01","segmentation_norming_randomized_order_maxrun_attention_v4","90.198.164.41","Mozilla/5.0 (Windows NT 10.0; Win64; x64) AppleWebKit/537.36 (KHTML, like Gecko) Chrome/148.0.0.0 Safari/537.36","WebKit","Chrome","148.0.0.0","Windows","10.0","https://uencdihehs.cognition.run/?PROLIFIC_PID=69ffbea27516957e550655d3&STUDY_ID=6a270c2e609d6ae583c06396&STUDY_ID=6a270c2e609d6ae583c06396&SESSION_ID=6a270e10d83e560726f73282?PROLIFIC_PID=69ffbea27516957e550655d3&SESSION_ID=6a270e10d83e560726f73282?","en-US,en;q=0.9","69ffbea27516957e550655d3","6a270c2e609d6ae583c06396","6a270e10d83e560726f73282?","69ffbea27516957e550655d3","6a270c2e609d6ae583c06396","6a270e10d83e560726f73282?","30","[20,21,14,18,23,15,9,7,19,3,5,27,13,30,11,12,17,24,26,29,4,22,25,8,2,6,16,10,28,1]","[""U20"",""P21"",""U14"",""U18"",""P23"",""P15"",""P9"",""U7"",""U19"",""P3"",""P5"",""P27"",""P13"",""U30"",""U11"",""P12"",""U17"",""P24"",""P26"",""P29"",""U4"",""P22"",""P25"",""U8"",""U2"",""U6"",""U16"",""P10"",""P28"",""P1""]","[""P20"",""U21"",""P14"",""P18"",""U23"",""U15"",""U9"",""P7"",""P19"",""U3"",""U5"",""U27"",""U13"",""P30"",""P11"",""U12"",""P17"",""U24"",""U26"",""U29"",""P4"",""U22"",""U25"",""P8"",""P2"",""P6"",""P16"",""U10"",""U28"",""U1""]","4","4","0","0","2","2","","3845","","{""confidence_rating"":""Moderately confident""}","confidence_question","[0]","","","","","","","","","painting","Unpredictable","","","","U18","18","1","4","","","","","","","","","","","","","Moderately confident"
"","","","","","video-keyboard-response","32","2.0.0","433350","83","1","2026-06-08 18:48:01","segmentation_norming_randomized_order_maxrun_attention_v4","90.198.164.41","Mozilla/5.0 (Windows NT 10.0; Win64; x64) AppleWebKit/537.36 (KHTML, like Gecko) Chrome/148.0.0.0 Safari/537.36","WebKit","Chrome","148.0.0.0","Windows","10.0","https://uencdihehs.cognition.run/?PROLIFIC_PID=69ffbea27516957e550655d3&STUDY_ID=6a270c2e609d6ae583c06396&STUDY_ID=6a270c2e609d6ae583c06396&SESSION_ID=6a270e10d83e560726f73282?PROLIFIC_PID=69ffbea27516957e550655d3&SESSION_ID=6a270e10d83e560726f73282?","en-US,en;q=0.9","69ffbea27516957e550655d3","6a270c2e609d6ae583c06396","6a270e10d83e560726f73282?","69ffbea27516957e550655d3","6a270c2e609d6ae583c06396","6a270e10d83e560726f73282?","30","[20,21,14,18,23,15,9,7,19,3,5,27,13,30,11,12,17,24,26,29,4,22,25,8,2,6,16,10,28,1]","[""U20"",""P21"",""U14"",""U18"",""P23"",""P15"",""P9"",""U7"",""U19"",""P3"",""P5"",""P27"",""P13"",""U30"",""U11"",""P12"",""U17"",""P24"",""P26"",""P29"",""U4"",""P22"",""P25"",""U8"",""U2"",""U6"",""U16"",""P10"",""P28"",""P1""]","[""P20"",""U21"",""P14"",""P18"",""U23"",""U15"",""U9"",""P7"",""P19"",""U3"",""U5"",""U27"",""U13"",""P30"",""P11"",""U12"",""P17"",""U24"",""U26"",""U29"",""P4"",""U22"",""U25"",""P8"",""P2"",""P6"",""P16"",""U10"",""U28"",""U1""]","4","4","0","0","2","2","","null","[""shopping_v1.mp4""]","null","segmentation_video","","","","","","","","","shopping_v1.mp4","shopping","Predictable","[1.00649,2.150222,3.518569,5.862273,8.198474]","5","","P23","23","1","5","1.1437319999999997","false","false","false","","false","0","0","false","false","false","false",""
"","","","","","survey-multi-choice","35","2.0.0","438647","83","1","2026-06-08 18:48:01","segmentation_norming_randomized_order_maxrun_attention_v4","90.198.164.41","Mozilla/5.0 (Windows NT 10.0; Win64; x64) AppleWebKit/537.36 (KHTML, like Gecko) Chrome/148.0.0.0 Safari/537.36","WebKit","Chrome","148.0.0.0","Windows","10.0","https://uencdihehs.cognition.run/?PROLIFIC_PID=69ffbea27516957e550655d3&STUDY_ID=6a270c2e609d6ae583c06396&STUDY_ID=6a270c2e609d6ae583c06396&SESSION_ID=6a270e10d83e560726f73282?PROLIFIC_PID=69ffbea27516957e550655d3&SESSION_ID=6a270e10d83e560726f73282?","en-US,en;q=0.9","69ffbea27516957e550655d3","6a270c2e609d6ae583c06396","6a270e10d83e560726f73282?","69ffbea27516957e550655d3","6a270c2e609d6ae583c06396","6a270e10d83e560726f73282?","30","[20,21,14,18,23,15,9,7,19,3,5,27,13,30,11,12,17,24,26,29,4,22,25,8,2,6,16,10,28,1]","[""U20"",""P21"",""U14"",""U18"",""P23"",""P15"",""P9"",""U7"",""U19"",""P3"",""P5"",""P27"",""P13"",""U30"",""U11"",""P12"",""U17"",""P24"",""P26"",""P29"",""U4"",""P22"",""P25"",""U8"",""U2"",""U6"",""U16"",""P10"",""P28"",""P1""]","[""P20"",""U21"",""P14"",""P18"",""U23"",""U15"",""U9"",""P7"",""P19"",""U3"",""U5"",""U27"",""U13"",""P30"",""P11"",""U12"",""P17"",""U24"",""U26"",""U29"",""P4"",""U22"",""U25"",""P8"",""P2"",""P6"",""P16"",""U10"",""U28"",""U1""]","4","4","0","0","2","2","","5295","","{""confidence_rating"":""Moderately confident""}","confidence_question","[0]","","","","","","","","","shopping","Predictable","","","","P23","23","1","5","","","","","","","","","","","","","Moderately confident"
"","","","","","video-keyboard-response","36","2.0.0","469610","83","1","2026-06-08 18:48:01","segmentation_norming_randomized_order_maxrun_attention_v4","90.198.164.41","Mozilla/5.0 (Windows NT 10.0; Win64; x64) AppleWebKit/537.36 (KHTML, like Gecko) Chrome/148.0.0.0 Safari/537.36","WebKit","Chrome","148.0.0.0","Windows","10.0","https://uencdihehs.cognition.run/?PROLIFIC_PID=69ffbea27516957e550655d3&STUDY_ID=6a270c2e609d6ae583c06396&STUDY_ID=6a270c2e609d6ae583c06396&SESSION_ID=6a270e10d83e560726f73282?PROLIFIC_PID=69ffbea27516957e550655d3&SESSION_ID=6a270e10d83e560726f73282?","en-US,en;q=0.9","69ffbea27516957e550655d3","6a270c2e609d6ae583c06396","6a270e10d83e560726f73282?","69ffbea27516957e550655d3","6a270c2e609d6ae583c06396","6a270e10d83e560726f73282?","30","[20,21,14,18,23,15,9,7,19,3,5,27,13,30,11,12,17,24,26,29,4,22,25,8,2,6,16,10,28,1]","[""U20"",""P21"",""U14"",""U18"",""P23"",""P15"",""P9"",""U7"",""U19"",""P3"",""P5"",""P27"",""P13"",""U30"",""U11"",""P12"",""U17"",""P24"",""P26"",""P29"",""U4"",""P22"",""P25"",""U8"",""U2"",""U6"",""U16"",""P10"",""P28"",""P1""]","[""P20"",""U21"",""P14"",""P18"",""U23"",""U15"",""U9"",""P7"",""P19"",""U3"",""U5"",""U27"",""U13"",""P30"",""P11"",""U12"",""P17"",""U24"",""U26"",""U29"",""P4"",""U22"",""U25"",""P8"",""P2"",""P6"",""P16"",""U10"",""U28"",""U1""]","4","4","0","0","2","2","","null","[""laundry_v1.mp4""]","null","segmentation_video","","","","","","","","","laundry_v1.mp4","laundry","Predictable","[1.122669,3.730609,6.874296,11.682659,15.834178,18.570396,21.754397,23.954232,24.70614,26.042661]","10","","P15","15","1","6","0.7519080000000002","false","false","false","","false","0","0","false","false","false","false",""
"","","","","","survey-multi-choice","39","2.0.0","473219","83","1","2026-06-08 18:48:01","segmentation_norming_randomized_order_maxrun_attention_v4","90.198.164.41","Mozilla/5.0 (Windows NT 10.0; Win64; x64) AppleWebKit/537.36 (KHTML, like Gecko) Chrome/148.0.0.0 Safari/537.36","WebKit","Chrome","148.0.0.0","Windows","10.0","https://uencdihehs.cognition.run/?PROLIFIC_PID=69ffbea27516957e550655d3&STUDY_ID=6a270c2e609d6ae583c06396&STUDY_ID=6a270c2e609d6ae583c06396&SESSION_ID=6a270e10d83e560726f73282?PROLIFIC_PID=69ffbea27516957e550655d3&SESSION_ID=6a270e10d83e560726f73282?","en-US,en;q=0.9","69ffbea27516957e550655d3","6a270c2e609d6ae583c06396","6a270e10d83e560726f73282?","69ffbea27516957e550655d3","6a270c2e609d6ae583c06396","6a270e10d83e560726f73282?","30","[20,21,14,18,23,15,9,7,19,3,5,27,13,30,11,12,17,24,26,29,4,22,25,8,2,6,16,10,28,1]","[""U20"",""P21"",""U14"",""U18"",""P23"",""P15"",""P9"",""U7"",""U19"",""P3"",""P5"",""P27"",""P13"",""U30"",""U11"",""P12"",""U17"",""P24"",""P26"",""P29"",""U4"",""P22"",""P25"",""U8"",""U2"",""U6"",""U16"",""P10"",""P28"",""P1""]","[""P20"",""U21"",""P14"",""P18"",""U23"",""U15"",""U9"",""P7"",""P19"",""U3"",""U5"",""U27"",""U13"",""P30"",""P11"",""U12"",""P17"",""U24"",""U26"",""U29"",""P4"",""U22"",""U25"",""P8"",""P2"",""P6"",""P16"",""U10"",""U28"",""U1""]","4","4","0","0","2","2","","3608","","{""confidence_rating"":""Moderately confident""}","confidence_question","[0]","","","","","","","","","laundry","Predictable","","","","P15","15","1","6","","","","","","","","","","","","","Moderately confident"
"","","","","","video-keyboard-response","40","2.0.0","511046","83","1","2026-06-08 18:48:01","segmentation_norming_randomized_order_maxrun_attention_v4","90.198.164.41","Mozilla/5.0 (Windows NT 10.0; Win64; x64) AppleWebKit/537.36 (KHTML, like Gecko) Chrome/148.0.0.0 Safari/537.36","WebKit","Chrome","148.0.0.0","Windows","10.0","https://uencdihehs.cognition.run/?PROLIFIC_PID=69ffbea27516957e550655d3&STUDY_ID=6a270c2e609d6ae583c06396&STUDY_ID=6a270c2e609d6ae583c06396&SESSION_ID=6a270e10d83e560726f73282?PROLIFIC_PID=69ffbea27516957e550655d3&SESSION_ID=6a270e10d83e560726f73282?","en-US,en;q=0.9","69ffbea27516957e550655d3","6a270c2e609d6ae583c06396","6a270e10d83e560726f73282?","69ffbea27516957e550655d3","6a270c2e609d6ae583c06396","6a270e10d83e560726f73282?","30","[20,21,14,18,23,15,9,7,19,3,5,27,13,30,11,12,17,24,26,29,4,22,25,8,2,6,16,10,28,1]","[""U20"",""P21"",""U14"",""U18"",""P23"",""P15"",""P9"",""U7"",""U19"",""P3"",""P5"",""P27"",""P13"",""U30"",""U11"",""P12"",""U17"",""P24"",""P26"",""P29"",""U4"",""P22"",""P25"",""U8"",""U2"",""U6"",""U16"",""P10"",""P28"",""P1""]","[""P20"",""U21"",""P14"",""P18"",""U23"",""U15"",""U9"",""P7"",""P19"",""U3"",""U5"",""U27"",""U13"",""P30"",""P11"",""U12"",""P17"",""U24"",""U26"",""U29"",""P4"",""U22"",""U25"",""P8"",""P2"",""P6"",""P16"",""U10"",""U28"",""U1""]","4","4","0","0","2","2","","null","[""cereal_v1.mp4""]","null","segmentation_video","","","","","","","","","cereal_v1.mp4","cereal","Predictable","[1.154399,2.634167,4.274198,6.386189,8.010659,10.874466,12.178516,13.650861,16.954564,18.042109,21.114407,22.346523,24.665663,28.36271,31.722834,33.634257,34.70654,36.866821]","18","","P9","9","1","7","1.0722829999999988","false","false","false","","false","0","0","false","false","false","false",""
"","","","","","survey-multi-choice","43","2.0.0","516901","83","1","2026-06-08 18:48:01","segmentation_norming_randomized_order_maxrun_attention_v4","90.198.164.41","Mozilla/5.0 (Windows NT 10.0; Win64; x64) AppleWebKit/537.36 (KHTML, like Gecko) Chrome/148.0.0.0 Safari/537.36","WebKit","Chrome","148.0.0.0","Windows","10.0","https://uencdihehs.cognition.run/?PROLIFIC_PID=69ffbea27516957e550655d3&STUDY_ID=6a270c2e609d6ae583c06396&STUDY_ID=6a270c2e609d6ae583c06396&SESSION_ID=6a270e10d83e560726f73282?PROLIFIC_PID=69ffbea27516957e550655d3&SESSION_ID=6a270e10d83e560726f73282?","en-US,en;q=0.9","69ffbea27516957e550655d3","6a270c2e609d6ae583c06396","6a270e10d83e560726f73282?","69ffbea27516957e550655d3","6a270c2e609d6ae583c06396","6a270e10d83e560726f73282?","30","[20,21,14,18,23,15,9,7,19,3,5,27,13,30,11,12,17,24,26,29,4,22,25,8,2,6,16,10,28,1]","[""U20"",""P21"",""U14"",""U18"",""P23"",""P15"",""P9"",""U7"",""U19"",""P3"",""P5"",""P27"",""P13"",""U30"",""U11"",""P12"",""U17"",""P24"",""P26"",""P29"",""U4"",""P22"",""P25"",""U8"",""U2"",""U6"",""U16"",""P10"",""P28"",""P1""]","[""P20"",""U21"",""P14"",""P18"",""U23"",""U15"",""U9"",""P7"",""P19"",""U3"",""U5"",""U27"",""U13"",""P30"",""P11"",""U12"",""P17"",""U24"",""U26"",""U29"",""P4"",""U22"",""U25"",""P8"",""P2"",""P6"",""P16"",""U10"",""U28"",""U1""]","4","4","0","0","2","2","","5853","","{""confidence_rating"":""Moderately confident""}","confidence_question","[0]","","","","","","","","","cereal","Predictable","","","","P9","9","1","7","","","","","","","","","","","","","Moderately confident"
"","","","","","video-keyboard-response","44","2.0.0","546326","83","1","2026-06-08 18:48:01","segmentation_norming_randomized_order_maxrun_attention_v4","90.198.164.41","Mozilla/5.0 (Windows NT 10.0; Win64; x64) AppleWebKit/537.36 (KHTML, like Gecko) Chrome/148.0.0.0 Safari/537.36","WebKit","Chrome","148.0.0.0","Windows","10.0","https://uencdihehs.cognition.run/?PROLIFIC_PID=69ffbea27516957e550655d3&STUDY_ID=6a270c2e609d6ae583c06396&STUDY_ID=6a270c2e609d6ae583c06396&SESSION_ID=6a270e10d83e560726f73282?PROLIFIC_PID=69ffbea27516957e550655d3&SESSION_ID=6a270e10d83e560726f73282?","en-US,en;q=0.9","69ffbea27516957e550655d3","6a270c2e609d6ae583c06396","6a270e10d83e560726f73282?","69ffbea27516957e550655d3","6a270c2e609d6ae583c06396","6a270e10d83e560726f73282?","30","[20,21,14,18,23,15,9,7,19,3,5,27,13,30,11,12,17,24,26,29,4,22,25,8,2,6,16,10,28,1]","[""U20"",""P21"",""U14"",""U18"",""P23"",""P15"",""P9"",""U7"",""U19"",""P3"",""P5"",""P27"",""P13"",""U30"",""U11"",""P12"",""U17"",""P24"",""P26"",""P29"",""U4"",""P22"",""P25"",""U8"",""U2"",""U6"",""U16"",""P10"",""P28"",""P1""]","[""P20"",""U21"",""P14"",""P18"",""U23"",""U15"",""U9"",""P7"",""P19"",""U3"",""U5"",""U27"",""U13"",""P30"",""P11"",""U12"",""P17"",""U24"",""U26"",""U29"",""P4"",""U22"",""U25"",""P8"",""P2"",""P6"",""P16"",""U10"",""U28"",""U1""]","4","4","0","0","2","2","","null","[""bike_v2.mp4""]","null","segmentation_video","","","","","","","","","bike_v2.mp4","bike","Unpredictable","[2.122275,3.546451,5.418767,6.666138,7.754077,8.52213,11.986243,13.762247,17.754396,20.258186,22.17826]","11","","U7","7","1","8","0.768053000000001","false","false","false","","false","0","0","false","false","false","false",""
"","","","","","survey-multi-choice","47","2.0.0","550896","83","1","2026-06-08 18:48:01","segmentation_norming_randomized_order_maxrun_attention_v4","90.198.164.41","Mozilla/5.0 (Windows NT 10.0; Win64; x64) AppleWebKit/537.36 (KHTML, like Gecko) Chrome/148.0.0.0 Safari/537.36","WebKit","Chrome","148.0.0.0","Windows","10.0","https://uencdihehs.cognition.run/?PROLIFIC_PID=69ffbea27516957e550655d3&STUDY_ID=6a270c2e609d6ae583c06396&STUDY_ID=6a270c2e609d6ae583c06396&SESSION_ID=6a270e10d83e560726f73282?PROLIFIC_PID=69ffbea27516957e550655d3&SESSION_ID=6a270e10d83e560726f73282?","en-US,en;q=0.9","69ffbea27516957e550655d3","6a270c2e609d6ae583c06396","6a270e10d83e560726f73282?","69ffbea27516957e550655d3","6a270c2e609d6ae583c06396","6a270e10d83e560726f73282?","30","[20,21,14,18,23,15,9,7,19,3,5,27,13,30,11,12,17,24,26,29,4,22,25,8,2,6,16,10,28,1]","[""U20"",""P21"",""U14"",""U18"",""P23"",""P15"",""P9"",""U7"",""U19"",""P3"",""P5"",""P27"",""P13"",""U30"",""U11"",""P12"",""U17"",""P24"",""P26"",""P29"",""U4"",""P22"",""P25"",""U8"",""U2"",""U6"",""U16"",""P10"",""P28"",""P1""]","[""P20"",""U21"",""P14"",""P18"",""U23"",""U15"",""U9"",""P7"",""P19"",""U3"",""U5"",""U27"",""U13"",""P30"",""P11"",""U12"",""P17"",""U24"",""U26"",""U29"",""P4"",""U22"",""U25"",""P8"",""P2"",""P6"",""P16"",""U10"",""U28"",""U1""]","4","4","0","0","2","2","","4569","","{""confidence_rating"":""Slightly unconfident""}","confidence_question","[0]","","","","","","","","","bike","Unpredictable","","","","U7","7","1","8","","","","","","","","","","","","","Slightly unconfident"
"","","","","","video-keyboard-response","48","2.0.0","586174","83","1","2026-06-08 18:48:01","segmentation_norming_randomized_order_maxrun_attention_v4","90.198.164.41","Mozilla/5.0 (Windows NT 10.0; Win64; x64) AppleWebKit/537.36 (KHTML, like Gecko) Chrome/148.0.0.0 Safari/537.36","WebKit","Chrome","148.0.0.0","Windows","10.0","https://uencdihehs.cognition.run/?PROLIFIC_PID=69ffbea27516957e550655d3&STUDY_ID=6a270c2e609d6ae583c06396&STUDY_ID=6a270c2e609d6ae583c06396&SESSION_ID=6a270e10d83e560726f73282?PROLIFIC_PID=69ffbea27516957e550655d3&SESSION_ID=6a270e10d83e560726f73282?","en-US,en;q=0.9","69ffbea27516957e550655d3","6a270c2e609d6ae583c06396","6a270e10d83e560726f73282?","69ffbea27516957e550655d3","6a270c2e609d6ae583c06396","6a270e10d83e560726f73282?","30","[20,21,14,18,23,15,9,7,19,3,5,27,13,30,11,12,17,24,26,29,4,22,25,8,2,6,16,10,28,1]","[""U20"",""P21"",""U14"",""U18"",""P23"",""P15"",""P9"",""U7"",""U19"",""P3"",""P5"",""P27"",""P13"",""U30"",""U11"",""P12"",""U17"",""P24"",""P26"",""P29"",""U4"",""P22"",""P25"",""U8"",""U2"",""U6"",""U16"",""P10"",""P28"",""P1""]","[""P20"",""U21"",""P14"",""P18"",""U23"",""U15"",""U9"",""P7"",""P19"",""U3"",""U5"",""U27"",""U13"",""P30"",""P11"",""U12"",""P17"",""U24"",""U26"",""U29"",""P4"",""U22"",""U25"",""P8"",""P2"",""P6"",""P16"",""U10"",""U28"",""U1""]","4","4","0","0","2","2","","null","[""party_v2.mp4""]","null","segmentation_video","","","","","","","","","party_v2.mp4","party","Unpredictable","[1.049906,1.874378,4.786394,7.026203,11.418667,13.122623,14.26616,21.834327,25.906225,31.818607,34.098372]","11","","U19","19","1","9","0.8244720000000001","false","false","false","","false","0","0","false","false","false","false",""
"","","","","","survey-multi-choice","51","2.0.0","589280","83","1","2026-06-08 18:48:01","segmentation_norming_randomized_order_maxrun_attention_v4","90.198.164.41","Mozilla/5.0 (Windows NT 10.0; Win64; x64) AppleWebKit/537.36 (KHTML, like Gecko) Chrome/148.0.0.0 Safari/537.36","WebKit","Chrome","148.0.0.0","Windows","10.0","https://uencdihehs.cognition.run/?PROLIFIC_PID=69ffbea27516957e550655d3&STUDY_ID=6a270c2e609d6ae583c06396&STUDY_ID=6a270c2e609d6ae583c06396&SESSION_ID=6a270e10d83e560726f73282?PROLIFIC_PID=69ffbea27516957e550655d3&SESSION_ID=6a270e10d83e560726f73282?","en-US,en;q=0.9","69ffbea27516957e550655d3","6a270c2e609d6ae583c06396","6a270e10d83e560726f73282?","69ffbea27516957e550655d3","6a270c2e609d6ae583c06396","6a270e10d83e560726f73282?","30","[20,21,14,18,23,15,9,7,19,3,5,27,13,30,11,12,17,24,26,29,4,22,25,8,2,6,16,10,28,1]","[""U20"",""P21"",""U14"",""U18"",""P23"",""P15"",""P9"",""U7"",""U19"",""P3"",""P5"",""P27"",""P13"",""U30"",""U11"",""P12"",""U17"",""P24"",""P26"",""P29"",""U4"",""P22"",""P25"",""U8"",""U2"",""U6"",""U16"",""P10"",""P28"",""P1""]","[""P20"",""U21"",""P14"",""P18"",""U23"",""U15"",""U9"",""P7"",""P19"",""U3"",""U5"",""U27"",""U13"",""P30"",""P11"",""U12"",""P17"",""U24"",""U26"",""U29"",""P4"",""U22"",""U25"",""P8"",""P2"",""P6"",""P16"",""U10"",""U28"",""U1""]","4","4","0","0","2","2","","3104","","{""confidence_rating"":""Moderately confident""}","confidence_question","[0]","","","","","","","","","party","Unpredictable","","","","U19","19","1","9","","","","","","","","","","","","","Moderately confident"
"","","","","","video-keyboard-response","52","2.0.0","608514","83","1","2026-06-08 18:48:01","segmentation_norming_randomized_order_maxrun_attention_v4","90.198.164.41","Mozilla/5.0 (Windows NT 10.0; Win64; x64) AppleWebKit/537.36 (KHTML, like Gecko) Chrome/148.0.0.0 Safari/537.36","WebKit","Chrome","148.0.0.0","Windows","10.0","https://uencdihehs.cognition.run/?PROLIFIC_PID=69ffbea27516957e550655d3&STUDY_ID=6a270c2e609d6ae583c06396&STUDY_ID=6a270c2e609d6ae583c06396&SESSION_ID=6a270e10d83e560726f73282?PROLIFIC_PID=69ffbea27516957e550655d3&SESSION_ID=6a270e10d83e560726f73282?","en-US,en;q=0.9","69ffbea27516957e550655d3","6a270c2e609d6ae583c06396","6a270e10d83e560726f73282?","69ffbea27516957e550655d3","6a270c2e609d6ae583c06396","6a270e10d83e560726f73282?","30","[20,21,14,18,23,15,9,7,19,3,5,27,13,30,11,12,17,24,26,29,4,22,25,8,2,6,16,10,28,1]","[""U20"",""P21"",""U14"",""U18"",""P23"",""P15"",""P9"",""U7"",""U19"",""P3"",""P5"",""P27"",""P13"",""U30"",""U11"",""P12"",""U17"",""P24"",""P26"",""P29"",""U4"",""P22"",""P25"",""U8"",""U2"",""U6"",""U16"",""P10"",""P28"",""P1""]","[""P20"",""U21"",""P14"",""P18"",""U23"",""U15"",""U9"",""P7"",""P19"",""U3"",""U5"",""U27"",""U13"",""P30"",""P11"",""U12"",""P17"",""U24"",""U26"",""U29"",""P4"",""U22"",""U25"",""P8"",""P2"",""P6"",""P16"",""U10"",""U28"",""U1""]","4","4","0","0","2","2","","null","[""bank_v1.mp4""]","null","segmentation_video","","","","","","","","","bank_v1.mp4","bank","Predictable","[1.450133,4.330467,9.354379,11.082642,13.122246,17.738182]","6","","P3","3","1","10","1.728263","false","false","false","","false","0","0","false","false","false","false",""
"","","","","","survey-multi-choice","55","2.0.0","611654","83","1","2026-06-08 18:48:01","segmentation_norming_randomized_order_maxrun_attention_v4","90.198.164.41","Mozilla/5.0 (Windows NT 10.0; Win64; x64) AppleWebKit/537.36 (KHTML, like Gecko) Chrome/148.0.0.0 Safari/537.36","WebKit","Chrome","148.0.0.0","Windows","10.0","https://uencdihehs.cognition.run/?PROLIFIC_PID=69ffbea27516957e550655d3&STUDY_ID=6a270c2e609d6ae583c06396&STUDY_ID=6a270c2e609d6ae583c06396&SESSION_ID=6a270e10d83e560726f73282?PROLIFIC_PID=69ffbea27516957e550655d3&SESSION_ID=6a270e10d83e560726f73282?","en-US,en;q=0.9","69ffbea27516957e550655d3","6a270c2e609d6ae583c06396","6a270e10d83e560726f73282?","69ffbea27516957e550655d3","6a270c2e609d6ae583c06396","6a270e10d83e560726f73282?","30","[20,21,14,18,23,15,9,7,19,3,5,27,13,30,11,12,17,24,26,29,4,22,25,8,2,6,16,10,28,1]","[""U20"",""P21"",""U14"",""U18"",""P23"",""P15"",""P9"",""U7"",""U19"",""P3"",""P5"",""P27"",""P13"",""U30"",""U11"",""P12"",""U17"",""P24"",""P26"",""P29"",""U4"",""P22"",""P25"",""U8"",""U2"",""U6"",""U16"",""P10"",""P28"",""P1""]","[""P20"",""U21"",""P14"",""P18"",""U23"",""U15"",""U9"",""P7"",""P19"",""U3"",""U5"",""U27"",""U13"",""P30"",""P11"",""U12"",""P17"",""U24"",""U26"",""U29"",""P4"",""U22"",""U25"",""P8"",""P2"",""P6"",""P16"",""U10"",""U28"",""U1""]","4","4","0","0","2","2","","3151","","{""confidence_rating"":""Slightly unconfident""}","confidence_question","[0]","","","","","","","","","bank","Predictable","","","","P3","3","1","10","","","","","","","","","","","","","Slightly unconfident"
"","","","","","video-keyboard-response","56","2.0.0","638543","83","1","2026-06-08 18:48:01","segmentation_norming_randomized_order_maxrun_attention_v4","90.198.164.41","Mozilla/5.0 (Windows NT 10.0; Win64; x64) AppleWebKit/537.36 (KHTML, like Gecko) Chrome/148.0.0.0 Safari/537.36","WebKit","Chrome","148.0.0.0","Windows","10.0","https://uencdihehs.cognition.run/?PROLIFIC_PID=69ffbea27516957e550655d3&STUDY_ID=6a270c2e609d6ae583c06396&STUDY_ID=6a270c2e609d6ae583c06396&SESSION_ID=6a270e10d83e560726f73282?PROLIFIC_PID=69ffbea27516957e550655d3&SESSION_ID=6a270e10d83e560726f73282?","en-US,en;q=0.9","69ffbea27516957e550655d3","6a270c2e609d6ae583c06396","6a270e10d83e560726f73282?","69ffbea27516957e550655d3","6a270c2e609d6ae583c06396","6a270e10d83e560726f73282?","30","[20,21,14,18,23,15,9,7,19,3,5,27,13,30,11,12,17,24,26,29,4,22,25,8,2,6,16,10,28,1]","[""U20"",""P21"",""U14"",""U18"",""P23"",""P15"",""P9"",""U7"",""U19"",""P3"",""P5"",""P27"",""P13"",""U30"",""U11"",""P12"",""U17"",""P24"",""P26"",""P29"",""U4"",""P22"",""P25"",""U8"",""U2"",""U6"",""U16"",""P10"",""P28"",""P1""]","[""P20"",""U21"",""P14"",""P18"",""U23"",""U15"",""U9"",""P7"",""P19"",""U3"",""U5"",""U27"",""U13"",""P30"",""P11"",""U12"",""P17"",""U24"",""U26"",""U29"",""P4"",""U22"",""U25"",""P8"",""P2"",""P6"",""P16"",""U10"",""U28"",""U1""]","4","4","0","0","2","2","","null","[""beach_v1.mp4""]","null","segmentation_video","","","","","","","","","beach_v1.mp4","beach","Predictable","[1.682365,3.962248,7.986654,11.010416,12.946105,14.978282,17.737853,20.330238,24.177723]","9","","P5","5","1","11","1.935689","false","false","false","","false","0","0","false","false","false","false",""
"","","","","","survey-multi-choice","59","2.0.0","644650","83","1","2026-06-08 18:48:01","segmentation_norming_randomized_order_maxrun_attention_v4","90.198.164.41","Mozilla/5.0 (Windows NT 10.0; Win64; x64) AppleWebKit/537.36 (KHTML, like Gecko) Chrome/148.0.0.0 Safari/537.36","WebKit","Chrome","148.0.0.0","Windows","10.0","https://uencdihehs.cognition.run/?PROLIFIC_PID=69ffbea27516957e550655d3&STUDY_ID=6a270c2e609d6ae583c06396&STUDY_ID=6a270c2e609d6ae583c06396&SESSION_ID=6a270e10d83e560726f73282?PROLIFIC_PID=69ffbea27516957e550655d3&SESSION_ID=6a270e10d83e560726f73282?","en-US,en;q=0.9","69ffbea27516957e550655d3","6a270c2e609d6ae583c06396","6a270e10d83e560726f73282?","69ffbea27516957e550655d3","6a270c2e609d6ae583c06396","6a270e10d83e560726f73282?","30","[20,21,14,18,23,15,9,7,19,3,5,27,13,30,11,12,17,24,26,29,4,22,25,8,2,6,16,10,28,1]","[""U20"",""P21"",""U14"",""U18"",""P23"",""P15"",""P9"",""U7"",""U19"",""P3"",""P5"",""P27"",""P13"",""U30"",""U11"",""P12"",""U17"",""P24"",""P26"",""P29"",""U4"",""P22"",""P25"",""U8"",""U2"",""U6"",""U16"",""P10"",""P28"",""P1""]","[""P20"",""U21"",""P14"",""P18"",""U23"",""U15"",""U9"",""P7"",""P19"",""U3"",""U5"",""U27"",""U13"",""P30"",""P11"",""U12"",""P17"",""U24"",""U26"",""U29"",""P4"",""U22"",""U25"",""P8"",""P2"",""P6"",""P16"",""U10"",""U28"",""U1""]","4","4","0","0","2","2","","6106","","{""confidence_rating"":""Moderately confident""}","confidence_question","[0]","","","","","","","","","beach","Predictable","","","","P5","5","1","11","","","","","","","","","","","","","Moderately confident"
"","","","","","video-keyboard-response","60","2.0.0","675652","83","1","2026-06-08 18:48:01","segmentation_norming_randomized_order_maxrun_attention_v4","90.198.164.41","Mozilla/5.0 (Windows NT 10.0; Win64; x64) AppleWebKit/537.36 (KHTML, like Gecko) Chrome/148.0.0.0 Safari/537.36","WebKit","Chrome","148.0.0.0","Windows","10.0","https://uencdihehs.cognition.run/?PROLIFIC_PID=69ffbea27516957e550655d3&STUDY_ID=6a270c2e609d6ae583c06396&STUDY_ID=6a270c2e609d6ae583c06396&SESSION_ID=6a270e10d83e560726f73282?PROLIFIC_PID=69ffbea27516957e550655d3&SESSION_ID=6a270e10d83e560726f73282?","en-US,en;q=0.9","69ffbea27516957e550655d3","6a270c2e609d6ae583c06396","6a270e10d83e560726f73282?","69ffbea27516957e550655d3","6a270c2e609d6ae583c06396","6a270e10d83e560726f73282?","30","[20,21,14,18,23,15,9,7,19,3,5,27,13,30,11,12,17,24,26,29,4,22,25,8,2,6,16,10,28,1]","[""U20"",""P21"",""U14"",""U18"",""P23"",""P15"",""P9"",""U7"",""U19"",""P3"",""P5"",""P27"",""P13"",""U30"",""U11"",""P12"",""U17"",""P24"",""P26"",""P29"",""U4"",""P22"",""P25"",""U8"",""U2"",""U6"",""U16"",""P10"",""P28"",""P1""]","[""P20"",""U21"",""P14"",""P18"",""U23"",""U15"",""U9"",""P7"",""P19"",""U3"",""U5"",""U27"",""U13"",""P30"",""P11"",""U12"",""P17"",""U24"",""U26"",""U29"",""P4"",""U22"",""U25"",""P8"",""P2"",""P6"",""P16"",""U10"",""U28"",""U1""]","4","4","0","0","2","2","","null","[""tea_v1.mp4""]","null","segmentation_video","","","","","","","","","tea_v1.mp4","tea","Predictable","[1.150875,3.269836,6.325874,8.814072,11.71064,14.470325,16.446067,18.67032,22.910339,25.302095,27.862108,29.117875]","12","","P27","27","1","12","1.2557670000000023","false","false","false","","false","0","0","false","false","false","false",""
"","","","","","survey-multi-choice","63","2.0.0","678400","83","1","2026-06-08 18:48:01","segmentation_norming_randomized_order_maxrun_attention_v4","90.198.164.41","Mozilla/5.0 (Windows NT 10.0; Win64; x64) AppleWebKit/537.36 (KHTML, like Gecko) Chrome/148.0.0.0 Safari/537.36","WebKit","Chrome","148.0.0.0","Windows","10.0","https://uencdihehs.cognition.run/?PROLIFIC_PID=69ffbea27516957e550655d3&STUDY_ID=6a270c2e609d6ae583c06396&STUDY_ID=6a270c2e609d6ae583c06396&SESSION_ID=6a270e10d83e560726f73282?PROLIFIC_PID=69ffbea27516957e550655d3&SESSION_ID=6a270e10d83e560726f73282?","en-US,en;q=0.9","69ffbea27516957e550655d3","6a270c2e609d6ae583c06396","6a270e10d83e560726f73282?","69ffbea27516957e550655d3","6a270c2e609d6ae583c06396","6a270e10d83e560726f73282?","30","[20,21,14,18,23,15,9,7,19,3,5,27,13,30,11,12,17,24,26,29,4,22,25,8,2,6,16,10,28,1]","[""U20"",""P21"",""U14"",""U18"",""P23"",""P15"",""P9"",""U7"",""U19"",""P3"",""P5"",""P27"",""P13"",""U30"",""U11"",""P12"",""U17"",""P24"",""P26"",""P29"",""U4"",""P22"",""P25"",""U8"",""U2"",""U6"",""U16"",""P10"",""P28"",""P1""]","[""P20"",""U21"",""P14"",""P18"",""U23"",""U15"",""U9"",""P7"",""P19"",""U3"",""U5"",""U27"",""U13"",""P30"",""P11"",""U12"",""P17"",""U24"",""U26"",""U29"",""P4"",""U22"",""U25"",""P8"",""P2"",""P6"",""P16"",""U10"",""U28"",""U1""]","4","4","0","0","2","2","","2746","","{""confidence_rating"":""Moderately confident""}","confidence_question","[0]","","","","","","","","","tea","Predictable","","","","P27","27","1","12","","","","","","","","","","","","","Moderately confident"
"","","","","","video-keyboard-response","64","2.0.0","707912","83","1","2026-06-08 18:48:01","segmentation_norming_randomized_order_maxrun_attention_v4","90.198.164.41","Mozilla/5.0 (Windows NT 10.0; Win64; x64) AppleWebKit/537.36 (KHTML, like Gecko) Chrome/148.0.0.0 Safari/537.36","WebKit","Chrome","148.0.0.0","Windows","10.0","https://uencdihehs.cognition.run/?PROLIFIC_PID=69ffbea27516957e550655d3&STUDY_ID=6a270c2e609d6ae583c06396&STUDY_ID=6a270c2e609d6ae583c06396&SESSION_ID=6a270e10d83e560726f73282?PROLIFIC_PID=69ffbea27516957e550655d3&SESSION_ID=6a270e10d83e560726f73282?","en-US,en;q=0.9","69ffbea27516957e550655d3","6a270c2e609d6ae583c06396","6a270e10d83e560726f73282?","69ffbea27516957e550655d3","6a270c2e609d6ae583c06396","6a270e10d83e560726f73282?","30","[20,21,14,18,23,15,9,7,19,3,5,27,13,30,11,12,17,24,26,29,4,22,25,8,2,6,16,10,28,1]","[""U20"",""P21"",""U14"",""U18"",""P23"",""P15"",""P9"",""U7"",""U19"",""P3"",""P5"",""P27"",""P13"",""U30"",""U11"",""P12"",""U17"",""P24"",""P26"",""P29"",""U4"",""P22"",""P25"",""U8"",""U2"",""U6"",""U16"",""P10"",""P28"",""P1""]","[""P20"",""U21"",""P14"",""P18"",""U23"",""U15"",""U9"",""P7"",""P19"",""U3"",""U5"",""U27"",""U13"",""P30"",""P11"",""U12"",""P17"",""U24"",""U26"",""U29"",""P4"",""U22"",""U25"",""P8"",""P2"",""P6"",""P16"",""U10"",""U28"",""U1""]","4","4","0","0","2","2","","null","[""gym_v1.mp4""]","null","segmentation_video","","","","","","","","","gym_v1.mp4","gym","Predictable","[2.070546,3.958365,6.334141,8.438056,11.886517,18.133959,20.933526,22.806068,25.510355]","9","","P13","13","1","13","1.8725419999999993","false","false","false","","false","0","0","false","false","false","false",""
"","","","","","survey-multi-choice","67","2.0.0","710919","83","1","2026-06-08 18:48:01","segmentation_norming_randomized_order_maxrun_attention_v4","90.198.164.41","Mozilla/5.0 (Windows NT 10.0; Win64; x64) AppleWebKit/537.36 (KHTML, like Gecko) Chrome/148.0.0.0 Safari/537.36","WebKit","Chrome","148.0.0.0","Windows","10.0","https://uencdihehs.cognition.run/?PROLIFIC_PID=69ffbea27516957e550655d3&STUDY_ID=6a270c2e609d6ae583c06396&STUDY_ID=6a270c2e609d6ae583c06396&SESSION_ID=6a270e10d83e560726f73282?PROLIFIC_PID=69ffbea27516957e550655d3&SESSION_ID=6a270e10d83e560726f73282?","en-US,en;q=0.9","69ffbea27516957e550655d3","6a270c2e609d6ae583c06396","6a270e10d83e560726f73282?","69ffbea27516957e550655d3","6a270c2e609d6ae583c06396","6a270e10d83e560726f73282?","30","[20,21,14,18,23,15,9,7,19,3,5,27,13,30,11,12,17,24,26,29,4,22,25,8,2,6,16,10,28,1]","[""U20"",""P21"",""U14"",""U18"",""P23"",""P15"",""P9"",""U7"",""U19"",""P3"",""P5"",""P27"",""P13"",""U30"",""U11"",""P12"",""U17"",""P24"",""P26"",""P29"",""U4"",""P22"",""P25"",""U8"",""U2"",""U6"",""U16"",""P10"",""P28"",""P1""]","[""P20"",""U21"",""P14"",""P18"",""U23"",""U15"",""U9"",""P7"",""P19"",""U3"",""U5"",""U27"",""U13"",""P30"",""P11"",""U12"",""P17"",""U24"",""U26"",""U29"",""P4"",""U22"",""U25"",""P8"",""P2"",""P6"",""P16"",""U10"",""U28"",""U1""]","4","4","0","0","2","2","","3004","","{""confidence_rating"":""Slightly unconfident""}","confidence_question","[0]","","","","","","","","","gym","Predictable","","","","P13","13","1","13","","","","","","","","","","","","","Slightly unconfident"
"","","","","","video-keyboard-response","68","2.0.0","747561","83","1","2026-06-08 18:48:01","segmentation_norming_randomized_order_maxrun_attention_v4","90.198.164.41","Mozilla/5.0 (Windows NT 10.0; Win64; x64) AppleWebKit/537.36 (KHTML, like Gecko) Chrome/148.0.0.0 Safari/537.36","WebKit","Chrome","148.0.0.0","Windows","10.0","https://uencdihehs.cognition.run/?PROLIFIC_PID=69ffbea27516957e550655d3&STUDY_ID=6a270c2e609d6ae583c06396&STUDY_ID=6a270c2e609d6ae583c06396&SESSION_ID=6a270e10d83e560726f73282?PROLIFIC_PID=69ffbea27516957e550655d3&SESSION_ID=6a270e10d83e560726f73282?","en-US,en;q=0.9","69ffbea27516957e550655d3","6a270c2e609d6ae583c06396","6a270e10d83e560726f73282?","69ffbea27516957e550655d3","6a270c2e609d6ae583c06396","6a270e10d83e560726f73282?","30","[20,21,14,18,23,15,9,7,19,3,5,27,13,30,11,12,17,24,26,29,4,22,25,8,2,6,16,10,28,1]","[""U20"",""P21"",""U14"",""U18"",""P23"",""P15"",""P9"",""U7"",""U19"",""P3"",""P5"",""P27"",""P13"",""U30"",""U11"",""P12"",""U17"",""P24"",""P26"",""P29"",""U4"",""P22"",""P25"",""U8"",""U2"",""U6"",""U16"",""P10"",""P28"",""P1""]","[""P20"",""U21"",""P14"",""P18"",""U23"",""U15"",""U9"",""P7"",""P19"",""U3"",""U5"",""U27"",""U13"",""P30"",""P11"",""U12"",""P17"",""U24"",""U26"",""U29"",""P4"",""U22"",""U25"",""P8"",""P2"",""P6"",""P16"",""U10"",""U28"",""U1""]","4","4","0","0","2","2","","null","[""whiteboard_v2.mp4""]","null","segmentation_video","","","","","","","","","whiteboard_v2.mp4","whiteboard","Unpredictable","[1.038612,1.958573,2.998493,4.486257,6.550378,7.558136,8.718227,9.83048,12.19083,13.829773,15.11836,17.222699,20.397726,23.078654,24.318179,25.262322,26.879004,29.71033,33.558208,34.70206]","20","","U30","30","1","14","0.9199609999999998","false","false","false","","false","0","0","false","false","false","false",""
"","","","","","survey-multi-choice","71","2.0.0","750755","83","1","2026-06-08 18:48:01","segmentation_norming_randomized_order_maxrun_attention_v4","90.198.164.41","Mozilla/5.0 (Windows NT 10.0; Win64; x64) AppleWebKit/537.36 (KHTML, like Gecko) Chrome/148.0.0.0 Safari/537.36","WebKit","Chrome","148.0.0.0","Windows","10.0","https://uencdihehs.cognition.run/?PROLIFIC_PID=69ffbea27516957e550655d3&STUDY_ID=6a270c2e609d6ae583c06396&STUDY_ID=6a270c2e609d6ae583c06396&SESSION_ID=6a270e10d83e560726f73282?PROLIFIC_PID=69ffbea27516957e550655d3&SESSION_ID=6a270e10d83e560726f73282?","en-US,en;q=0.9","69ffbea27516957e550655d3","6a270c2e609d6ae583c06396","6a270e10d83e560726f73282?","69ffbea27516957e550655d3","6a270c2e609d6ae583c06396","6a270e10d83e560726f73282?","30","[20,21,14,18,23,15,9,7,19,3,5,27,13,30,11,12,17,24,26,29,4,22,25,8,2,6,16,10,28,1]","[""U20"",""P21"",""U14"",""U18"",""P23"",""P15"",""P9"",""U7"",""U19"",""P3"",""P5"",""P27"",""P13"",""U30"",""U11"",""P12"",""U17"",""P24"",""P26"",""P29"",""U4"",""P22"",""P25"",""U8"",""U2"",""U6"",""U16"",""P10"",""P28"",""P1""]","[""P20"",""U21"",""P14"",""P18"",""U23"",""U15"",""U9"",""P7"",""P19"",""U3"",""U5"",""U27"",""U13"",""P30"",""P11"",""U12"",""P17"",""U24"",""U26"",""U29"",""P4"",""U22"",""U25"",""P8"",""P2"",""P6"",""P16"",""U10"",""U28"",""U1""]","4","4","0","0","2","2","","3192","","{""confidence_rating"":""Very unconfident""}","confidence_question","[0]","","","","","","","","","whiteboard","Unpredictable","","","","U30","30","1","14","","","","","","","","","","","","","Very unconfident"
"","","","","","video-keyboard-response","72","2.0.0","781860","83","1","2026-06-08 18:48:01","segmentation_norming_randomized_order_maxrun_attention_v4","90.198.164.41","Mozilla/5.0 (Windows NT 10.0; Win64; x64) AppleWebKit/537.36 (KHTML, like Gecko) Chrome/148.0.0.0 Safari/537.36","WebKit","Chrome","148.0.0.0","Windows","10.0","https://uencdihehs.cognition.run/?PROLIFIC_PID=69ffbea27516957e550655d3&STUDY_ID=6a270c2e609d6ae583c06396&STUDY_ID=6a270c2e609d6ae583c06396&SESSION_ID=6a270e10d83e560726f73282?PROLIFIC_PID=69ffbea27516957e550655d3&SESSION_ID=6a270e10d83e560726f73282?","en-US,en;q=0.9","69ffbea27516957e550655d3","6a270c2e609d6ae583c06396","6a270e10d83e560726f73282?","69ffbea27516957e550655d3","6a270c2e609d6ae583c06396","6a270e10d83e560726f73282?","30","[20,21,14,18,23,15,9,7,19,3,5,27,13,30,11,12,17,24,26,29,4,22,25,8,2,6,16,10,28,1]","[""U20"",""P21"",""U14"",""U18"",""P23"",""P15"",""P9"",""U7"",""U19"",""P3"",""P5"",""P27"",""P13"",""U30"",""U11"",""P12"",""U17"",""P24"",""P26"",""P29"",""U4"",""P22"",""P25"",""U8"",""U2"",""U6"",""U16"",""P10"",""P28"",""P1""]","[""P20"",""U21"",""P14"",""P18"",""U23"",""U15"",""U9"",""P7"",""P19"",""U3"",""U5"",""U27"",""U13"",""P30"",""P11"",""U12"",""P17"",""U24"",""U26"",""U29"",""P4"",""U22"",""U25"",""P8"",""P2"",""P6"",""P16"",""U10"",""U28"",""U1""]","4","4","0","0","2","2","","null","[""fireplace_v2.mp4""]","null","segmentation_video","","","","","","","","","fireplace_v2.mp4","fireplace","Unpredictable","[1.486822,2.406146,3.382258,6.01436,9.054445,10.790319,12.094743,14.702065,16.894177,20.046236,21.758265,22.694275,24.069929,26.398187,29.990672]","15","","U11","11","1","15","0.919324","false","false","false","","false","0","0","false","false","false","false",""
"","","","","","survey-multi-choice","75","2.0.0","785072","83","1","2026-06-08 18:48:01","segmentation_norming_randomized_order_maxrun_attention_v4","90.198.164.41","Mozilla/5.0 (Windows NT 10.0; Win64; x64) AppleWebKit/537.36 (KHTML, like Gecko) Chrome/148.0.0.0 Safari/537.36","WebKit","Chrome","148.0.0.0","Windows","10.0","https://uencdihehs.cognition.run/?PROLIFIC_PID=69ffbea27516957e550655d3&STUDY_ID=6a270c2e609d6ae583c06396&STUDY_ID=6a270c2e609d6ae583c06396&SESSION_ID=6a270e10d83e560726f73282?PROLIFIC_PID=69ffbea27516957e550655d3&SESSION_ID=6a270e10d83e560726f73282?","en-US,en;q=0.9","69ffbea27516957e550655d3","6a270c2e609d6ae583c06396","6a270e10d83e560726f73282?","69ffbea27516957e550655d3","6a270c2e609d6ae583c06396","6a270e10d83e560726f73282?","30","[20,21,14,18,23,15,9,7,19,3,5,27,13,30,11,12,17,24,26,29,4,22,25,8,2,6,16,10,28,1]","[""U20"",""P21"",""U14"",""U18"",""P23"",""P15"",""P9"",""U7"",""U19"",""P3"",""P5"",""P27"",""P13"",""U30"",""U11"",""P12"",""U17"",""P24"",""P26"",""P29"",""U4"",""P22"",""P25"",""U8"",""U2"",""U6"",""U16"",""P10"",""P28"",""P1""]","[""P20"",""U21"",""P14"",""P18"",""U23"",""U15"",""U9"",""P7"",""P19"",""U3"",""U5"",""U27"",""U13"",""P30"",""P11"",""U12"",""P17"",""U24"",""U26"",""U29"",""P4"",""U22"",""U25"",""P8"",""P2"",""P6"",""P16"",""U10"",""U28"",""U1""]","4","4","0","0","2","2","","3211","","{""confidence_rating"":""Slightly unconfident""}","confidence_question","[0]","","","","","","","","","fireplace","Unpredictable","","","","U11","11","1","15","","","","","","","","","","","","","Slightly unconfident"
"","","","","","video-keyboard-response","76","2.0.0","820869","83","1","2026-06-08 18:48:01","segmentation_norming_randomized_order_maxrun_attention_v4","90.198.164.41","Mozilla/5.0 (Windows NT 10.0; Win64; x64) AppleWebKit/537.36 (KHTML, like Gecko) Chrome/148.0.0.0 Safari/537.36","WebKit","Chrome","148.0.0.0","Windows","10.0","https://uencdihehs.cognition.run/?PROLIFIC_PID=69ffbea27516957e550655d3&STUDY_ID=6a270c2e609d6ae583c06396&STUDY_ID=6a270c2e609d6ae583c06396&SESSION_ID=6a270e10d83e560726f73282?PROLIFIC_PID=69ffbea27516957e550655d3&SESSION_ID=6a270e10d83e560726f73282?","en-US,en;q=0.9","69ffbea27516957e550655d3","6a270c2e609d6ae583c06396","6a270e10d83e560726f73282?","69ffbea27516957e550655d3","6a270c2e609d6ae583c06396","6a270e10d83e560726f73282?","30","[20,21,14,18,23,15,9,7,19,3,5,27,13,30,11,12,17,24,26,29,4,22,25,8,2,6,16,10,28,1]","[""U20"",""P21"",""U14"",""U18"",""P23"",""P15"",""P9"",""U7"",""U19"",""P3"",""P5"",""P27"",""P13"",""U30"",""U11"",""P12"",""U17"",""P24"",""P26"",""P29"",""U4"",""P22"",""P25"",""U8"",""U2"",""U6"",""U16"",""P10"",""P28"",""P1""]","[""P20"",""U21"",""P14"",""P18"",""U23"",""U15"",""U9"",""P7"",""P19"",""U3"",""U5"",""U27"",""U13"",""P30"",""P11"",""U12"",""P17"",""U24"",""U26"",""U29"",""P4"",""U22"",""U25"",""P8"",""P2"",""P6"",""P16"",""U10"",""U28"",""U1""]","4","4","0","0","2","2","","null","[""football_v1.mp4""]","null","segmentation_video","","","","","","","","","football_v1.mp4","football","Predictable","[2.014741,4.254105,7.909946,12.470051,14.8943,21.766406,23.918532,26.870247,29.846133,31.854076,33.422159,34.238223]","12","","P12","12","1","16","0.8160639999999972","false","false","false","","false","0","0","false","false","false","false",""
"","","","","","survey-multi-choice","79","2.0.0","824122","83","1","2026-06-08 18:48:01","segmentation_norming_randomized_order_maxrun_attention_v4","90.198.164.41","Mozilla/5.0 (Windows NT 10.0; Win64; x64) AppleWebKit/537.36 (KHTML, like Gecko) Chrome/148.0.0.0 Safari/537.36","WebKit","Chrome","148.0.0.0","Windows","10.0","https://uencdihehs.cognition.run/?PROLIFIC_PID=69ffbea27516957e550655d3&STUDY_ID=6a270c2e609d6ae583c06396&STUDY_ID=6a270c2e609d6ae583c06396&SESSION_ID=6a270e10d83e560726f73282?PROLIFIC_PID=69ffbea27516957e550655d3&SESSION_ID=6a270e10d83e560726f73282?","en-US,en;q=0.9","69ffbea27516957e550655d3","6a270c2e609d6ae583c06396","6a270e10d83e560726f73282?","69ffbea27516957e550655d3","6a270c2e609d6ae583c06396","6a270e10d83e560726f73282?","30","[20,21,14,18,23,15,9,7,19,3,5,27,13,30,11,12,17,24,26,29,4,22,25,8,2,6,16,10,28,1]","[""U20"",""P21"",""U14"",""U18"",""P23"",""P15"",""P9"",""U7"",""U19"",""P3"",""P5"",""P27"",""P13"",""U30"",""U11"",""P12"",""U17"",""P24"",""P26"",""P29"",""U4"",""P22"",""P25"",""U8"",""U2"",""U6"",""U16"",""P10"",""P28"",""P1""]","[""P20"",""U21"",""P14"",""P18"",""U23"",""U15"",""U9"",""P7"",""P19"",""U3"",""U5"",""U27"",""U13"",""P30"",""P11"",""U12"",""P17"",""U24"",""U26"",""U29"",""P4"",""U22"",""U25"",""P8"",""P2"",""P6"",""P16"",""U10"",""U28"",""U1""]","4","4","0","0","2","2","","3251","","{""confidence_rating"":""Moderately confident""}","confidence_question","[0]","","","","","","","","","football","Predictable","","","","P12","12","1","16","","","","","","","","","","","","","Moderately confident"
"","","","","","video-keyboard-response","80","2.0.0","862337","83","1","2026-06-08 18:48:01","segmentation_norming_randomized_order_maxrun_attention_v4","90.198.164.41","Mozilla/5.0 (Windows NT 10.0; Win64; x64) AppleWebKit/537.36 (KHTML, like Gecko) Chrome/148.0.0.0 Safari/537.36","WebKit","Chrome","148.0.0.0","Windows","10.0","https://uencdihehs.cognition.run/?PROLIFIC_PID=69ffbea27516957e550655d3&STUDY_ID=6a270c2e609d6ae583c06396&STUDY_ID=6a270c2e609d6ae583c06396&SESSION_ID=6a270e10d83e560726f73282?PROLIFIC_PID=69ffbea27516957e550655d3&SESSION_ID=6a270e10d83e560726f73282?","en-US,en;q=0.9","69ffbea27516957e550655d3","6a270c2e609d6ae583c06396","6a270e10d83e560726f73282?","69ffbea27516957e550655d3","6a270c2e609d6ae583c06396","6a270e10d83e560726f73282?","30","[20,21,14,18,23,15,9,7,19,3,5,27,13,30,11,12,17,24,26,29,4,22,25,8,2,6,16,10,28,1]","[""U20"",""P21"",""U14"",""U18"",""P23"",""P15"",""P9"",""U7"",""U19"",""P3"",""P5"",""P27"",""P13"",""U30"",""U11"",""P12"",""U17"",""P24"",""P26"",""P29"",""U4"",""P22"",""P25"",""U8"",""U2"",""U6"",""U16"",""P10"",""P28"",""P1""]","[""P20"",""U21"",""P14"",""P18"",""U23"",""U15"",""U9"",""P7"",""P19"",""U3"",""U5"",""U27"",""U13"",""P30"",""P11"",""U12"",""P17"",""U24"",""U26"",""U29"",""P4"",""U22"",""U25"",""P8"",""P2"",""P6"",""P16"",""U10"",""U28"",""U1""]","4","4","0","0","2","2","","null","[""music_v2.mp4""]","null","segmentation_video","","","","","","","","","music_v2.mp4","music","Unpredictable","[1.642033,11.794232,14.417607,17.010234,19.250232,21.698813,24.29836,27.018557,30.458509,32.594119,36.474365]","11","","U17","17","1","17","2.13561","false","false","false","","false","0","0","false","false","false","false",""
"","","","","","survey-multi-choice","83","2.0.0","865301","83","1","2026-06-08 18:48:01","segmentation_norming_randomized_order_maxrun_attention_v4","90.198.164.41","Mozilla/5.0 (Windows NT 10.0; Win64; x64) AppleWebKit/537.36 (KHTML, like Gecko) Chrome/148.0.0.0 Safari/537.36","WebKit","Chrome","148.0.0.0","Windows","10.0","https://uencdihehs.cognition.run/?PROLIFIC_PID=69ffbea27516957e550655d3&STUDY_ID=6a270c2e609d6ae583c06396&STUDY_ID=6a270c2e609d6ae583c06396&SESSION_ID=6a270e10d83e560726f73282?PROLIFIC_PID=69ffbea27516957e550655d3&SESSION_ID=6a270e10d83e560726f73282?","en-US,en;q=0.9","69ffbea27516957e550655d3","6a270c2e609d6ae583c06396","6a270e10d83e560726f73282?","69ffbea27516957e550655d3","6a270c2e609d6ae583c06396","6a270e10d83e560726f73282?","30","[20,21,14,18,23,15,9,7,19,3,5,27,13,30,11,12,17,24,26,29,4,22,25,8,2,6,16,10,28,1]","[""U20"",""P21"",""U14"",""U18"",""P23"",""P15"",""P9"",""U7"",""U19"",""P3"",""P5"",""P27"",""P13"",""U30"",""U11"",""P12"",""U17"",""P24"",""P26"",""P29"",""U4"",""P22"",""P25"",""U8"",""U2"",""U6"",""U16"",""P10"",""P28"",""P1""]","[""P20"",""U21"",""P14"",""P18"",""U23"",""U15"",""U9"",""P7"",""P19"",""U3"",""U5"",""U27"",""U13"",""P30"",""P11"",""U12"",""P17"",""U24"",""U26"",""U29"",""P4"",""U22"",""U25"",""P8"",""P2"",""P6"",""P16"",""U10"",""U28"",""U1""]","4","4","0","0","2","2","","2962","","{""confidence_rating"":""Moderately confident""}","confidence_question","[0]","","","","","","","","","music","Unpredictable","","","","U17","17","1","17","","","","","","","","","","","","","Moderately confident"
"","","","","","video-keyboard-response","84","2.0.0","889537","83","1","2026-06-08 18:48:01","segmentation_norming_randomized_order_maxrun_attention_v4","90.198.164.41","Mozilla/5.0 (Windows NT 10.0; Win64; x64) AppleWebKit/537.36 (KHTML, like Gecko) Chrome/148.0.0.0 Safari/537.36","WebKit","Chrome","148.0.0.0","Windows","10.0","https://uencdihehs.cognition.run/?PROLIFIC_PID=69ffbea27516957e550655d3&STUDY_ID=6a270c2e609d6ae583c06396&STUDY_ID=6a270c2e609d6ae583c06396&SESSION_ID=6a270e10d83e560726f73282?PROLIFIC_PID=69ffbea27516957e550655d3&SESSION_ID=6a270e10d83e560726f73282?","en-US,en;q=0.9","69ffbea27516957e550655d3","6a270c2e609d6ae583c06396","6a270e10d83e560726f73282?","69ffbea27516957e550655d3","6a270c2e609d6ae583c06396","6a270e10d83e560726f73282?","30","[20,21,14,18,23,15,9,7,19,3,5,27,13,30,11,12,17,24,26,29,4,22,25,8,2,6,16,10,28,1]","[""U20"",""P21"",""U14"",""U18"",""P23"",""P15"",""P9"",""U7"",""U19"",""P3"",""P5"",""P27"",""P13"",""U30"",""U11"",""P12"",""U17"",""P24"",""P26"",""P29"",""U4"",""P22"",""P25"",""U8"",""U2"",""U6"",""U16"",""P10"",""P28"",""P1""]","[""P20"",""U21"",""P14"",""P18"",""U23"",""U15"",""U9"",""P7"",""P19"",""U3"",""U5"",""U27"",""U13"",""P30"",""P11"",""U12"",""P17"",""U24"",""U26"",""U29"",""P4"",""U22"",""U25"",""P8"",""P2"",""P6"",""P16"",""U10"",""U28"",""U1""]","4","4","0","0","2","2","","null","[""skateboard_v1.mp4""]","null","segmentation_video","","","","","","","","","skateboard_v1.mp4","skateboard","Predictable","[1.209723,5.570348,8.393783,10.858987,14.969708,17.154347,21.7382,23.226145]","8","","P24","24","1","18","1.4879449999999999","false","false","false","","false","0","0","false","false","false","false",""
"","","","","","survey-multi-choice","87","2.0.0","892177","83","1","2026-06-08 18:48:01","segmentation_norming_randomized_order_maxrun_attention_v4","90.198.164.41","Mozilla/5.0 (Windows NT 10.0; Win64; x64) AppleWebKit/537.36 (KHTML, like Gecko) Chrome/148.0.0.0 Safari/537.36","WebKit","Chrome","148.0.0.0","Windows","10.0","https://uencdihehs.cognition.run/?PROLIFIC_PID=69ffbea27516957e550655d3&STUDY_ID=6a270c2e609d6ae583c06396&STUDY_ID=6a270c2e609d6ae583c06396&SESSION_ID=6a270e10d83e560726f73282?PROLIFIC_PID=69ffbea27516957e550655d3&SESSION_ID=6a270e10d83e560726f73282?","en-US,en;q=0.9","69ffbea27516957e550655d3","6a270c2e609d6ae583c06396","6a270e10d83e560726f73282?","69ffbea27516957e550655d3","6a270c2e609d6ae583c06396","6a270e10d83e560726f73282?","30","[20,21,14,18,23,15,9,7,19,3,5,27,13,30,11,12,17,24,26,29,4,22,25,8,2,6,16,10,28,1]","[""U20"",""P21"",""U14"",""U18"",""P23"",""P15"",""P9"",""U7"",""U19"",""P3"",""P5"",""P27"",""P13"",""U30"",""U11"",""P12"",""U17"",""P24"",""P26"",""P29"",""U4"",""P22"",""P25"",""U8"",""U2"",""U6"",""U16"",""P10"",""P28"",""P1""]","[""P20"",""U21"",""P14"",""P18"",""U23"",""U15"",""U9"",""P7"",""P19"",""U3"",""U5"",""U27"",""U13"",""P30"",""P11"",""U12"",""P17"",""U24"",""U26"",""U29"",""P4"",""U22"",""U25"",""P8"",""P2"",""P6"",""P16"",""U10"",""U28"",""U1""]","4","4","0","0","2","2","","2638","","{""confidence_rating"":""Slightly unconfident""}","confidence_question","[0]","","","","","","","","","skateboard","Predictable","","","","P24","24","1","18","","","","","","","","","","","","","Slightly unconfident"
"","","","","","video-keyboard-response","88","2.0.0","932405","83","1","2026-06-08 18:48:01","segmentation_norming_randomized_order_maxrun_attention_v4","90.198.164.41","Mozilla/5.0 (Windows NT 10.0; Win64; x64) AppleWebKit/537.36 (KHTML, like Gecko) Chrome/148.0.0.0 Safari/537.36","WebKit","Chrome","148.0.0.0","Windows","10.0","https://uencdihehs.cognition.run/?PROLIFIC_PID=69ffbea27516957e550655d3&STUDY_ID=6a270c2e609d6ae583c06396&STUDY_ID=6a270c2e609d6ae583c06396&SESSION_ID=6a270e10d83e560726f73282?PROLIFIC_PID=69ffbea27516957e550655d3&SESSION_ID=6a270e10d83e560726f73282?","en-US,en;q=0.9","69ffbea27516957e550655d3","6a270c2e609d6ae583c06396","6a270e10d83e560726f73282?","69ffbea27516957e550655d3","6a270c2e609d6ae583c06396","6a270e10d83e560726f73282?","30","[20,21,14,18,23,15,9,7,19,3,5,27,13,30,11,12,17,24,26,29,4,22,25,8,2,6,16,10,28,1]","[""U20"",""P21"",""U14"",""U18"",""P23"",""P15"",""P9"",""U7"",""U19"",""P3"",""P5"",""P27"",""P13"",""U30"",""U11"",""P12"",""U17"",""P24"",""P26"",""P29"",""U4"",""P22"",""P25"",""U8"",""U2"",""U6"",""U16"",""P10"",""P28"",""P1""]","[""P20"",""U21"",""P14"",""P18"",""U23"",""U15"",""U9"",""P7"",""P19"",""U3"",""U5"",""U27"",""U13"",""P30"",""P11"",""U12"",""P17"",""U24"",""U26"",""U29"",""P4"",""U22"",""U25"",""P8"",""P2"",""P6"",""P16"",""U10"",""U28"",""U1""]","4","4","0","0","2","2","","null","[""sunbathing_v1.mp4""]","null","segmentation_video","","","","","","","","","sunbathing_v1.mp4","sunbathing","Predictable","[4.321939,8.994066,14.698878,17.674076,20.802782,24.114228,30.01841,32.058517,34.242124,36.954171]","10","","P26","26","1","19","2.0401070000000026","false","false","false","","false","0","0","false","false","false","false",""
"","","","","","survey-multi-choice","91","2.0.0","935177","83","1","2026-06-08 18:48:01","segmentation_norming_randomized_order_maxrun_attention_v4","90.198.164.41","Mozilla/5.0 (Windows NT 10.0; Win64; x64) AppleWebKit/537.36 (KHTML, like Gecko) Chrome/148.0.0.0 Safari/537.36","WebKit","Chrome","148.0.0.0","Windows","10.0","https://uencdihehs.cognition.run/?PROLIFIC_PID=69ffbea27516957e550655d3&STUDY_ID=6a270c2e609d6ae583c06396&STUDY_ID=6a270c2e609d6ae583c06396&SESSION_ID=6a270e10d83e560726f73282?PROLIFIC_PID=69ffbea27516957e550655d3&SESSION_ID=6a270e10d83e560726f73282?","en-US,en;q=0.9","69ffbea27516957e550655d3","6a270c2e609d6ae583c06396","6a270e10d83e560726f73282?","69ffbea27516957e550655d3","6a270c2e609d6ae583c06396","6a270e10d83e560726f73282?","30","[20,21,14,18,23,15,9,7,19,3,5,27,13,30,11,12,17,24,26,29,4,22,25,8,2,6,16,10,28,1]","[""U20"",""P21"",""U14"",""U18"",""P23"",""P15"",""P9"",""U7"",""U19"",""P3"",""P5"",""P27"",""P13"",""U30"",""U11"",""P12"",""U17"",""P24"",""P26"",""P29"",""U4"",""P22"",""P25"",""U8"",""U2"",""U6"",""U16"",""P10"",""P28"",""P1""]","[""P20"",""U21"",""P14"",""P18"",""U23"",""U15"",""U9"",""P7"",""P19"",""U3"",""U5"",""U27"",""U13"",""P30"",""P11"",""U12"",""P17"",""U24"",""U26"",""U29"",""P4"",""U22"",""U25"",""P8"",""P2"",""P6"",""P16"",""U10"",""U28"",""U1""]","4","4","0","0","2","2","","2771","","{""confidence_rating"":""Moderately confident""}","confidence_question","[0]","","","","","","","","","sunbathing","Predictable","","","","P26","26","1","19","","","","","","","","","","","","","Moderately confident"
"","","","","","video-keyboard-response","92","2.0.0","956826","83","1","2026-06-08 18:48:01","segmentation_norming_randomized_order_maxrun_attention_v4","90.198.164.41","Mozilla/5.0 (Windows NT 10.0; Win64; x64) AppleWebKit/537.36 (KHTML, like Gecko) Chrome/148.0.0.0 Safari/537.36","WebKit","Chrome","148.0.0.0","Windows","10.0","https://uencdihehs.cognition.run/?PROLIFIC_PID=69ffbea27516957e550655d3&STUDY_ID=6a270c2e609d6ae583c06396&STUDY_ID=6a270c2e609d6ae583c06396&SESSION_ID=6a270e10d83e560726f73282?PROLIFIC_PID=69ffbea27516957e550655d3&SESSION_ID=6a270e10d83e560726f73282?","en-US,en;q=0.9","69ffbea27516957e550655d3","6a270c2e609d6ae583c06396","6a270e10d83e560726f73282?","69ffbea27516957e550655d3","6a270c2e609d6ae583c06396","6a270e10d83e560726f73282?","30","[20,21,14,18,23,15,9,7,19,3,5,27,13,30,11,12,17,24,26,29,4,22,25,8,2,6,16,10,28,1]","[""U20"",""P21"",""U14"",""U18"",""P23"",""P15"",""P9"",""U7"",""U19"",""P3"",""P5"",""P27"",""P13"",""U30"",""U11"",""P12"",""U17"",""P24"",""P26"",""P29"",""U4"",""P22"",""P25"",""U8"",""U2"",""U6"",""U16"",""P10"",""P28"",""P1""]","[""P20"",""U21"",""P14"",""P18"",""U23"",""U15"",""U9"",""P7"",""P19"",""U3"",""U5"",""U27"",""U13"",""P30"",""P11"",""U12"",""P17"",""U24"",""U26"",""U29"",""P4"",""U22"",""U25"",""P8"",""P2"",""P6"",""P16"",""U10"",""U28"",""U1""]","4","4","0","0","2","2","","null","[""walking_v1.mp4""]","null","segmentation_video","","","","","","","","","walking_v1.mp4","walking","Predictable","[1.966425,3.853645,6.350338,9.557754,12.846418,17.038862,19.710353]","7","","P29","29","1","20","1.8872200000000001","false","false","false","","false","0","0","false","false","false","false",""
"","","","","","survey-multi-choice","95","2.0.0","959783","83","1","2026-06-08 18:48:01","segmentation_norming_randomized_order_maxrun_attention_v4","90.198.164.41","Mozilla/5.0 (Windows NT 10.0; Win64; x64) AppleWebKit/537.36 (KHTML, like Gecko) Chrome/148.0.0.0 Safari/537.36","WebKit","Chrome","148.0.0.0","Windows","10.0","https://uencdihehs.cognition.run/?PROLIFIC_PID=69ffbea27516957e550655d3&STUDY_ID=6a270c2e609d6ae583c06396&STUDY_ID=6a270c2e609d6ae583c06396&SESSION_ID=6a270e10d83e560726f73282?PROLIFIC_PID=69ffbea27516957e550655d3&SESSION_ID=6a270e10d83e560726f73282?","en-US,en;q=0.9","69ffbea27516957e550655d3","6a270c2e609d6ae583c06396","6a270e10d83e560726f73282?","69ffbea27516957e550655d3","6a270c2e609d6ae583c06396","6a270e10d83e560726f73282?","30","[20,21,14,18,23,15,9,7,19,3,5,27,13,30,11,12,17,24,26,29,4,22,25,8,2,6,16,10,28,1]","[""U20"",""P21"",""U14"",""U18"",""P23"",""P15"",""P9"",""U7"",""U19"",""P3"",""P5"",""P27"",""P13"",""U30"",""U11"",""P12"",""U17"",""P24"",""P26"",""P29"",""U4"",""P22"",""P25"",""U8"",""U2"",""U6"",""U16"",""P10"",""P28"",""P1""]","[""P20"",""U21"",""P14"",""P18"",""U23"",""U15"",""U9"",""P7"",""P19"",""U3"",""U5"",""U27"",""U13"",""P30"",""P11"",""U12"",""P17"",""U24"",""U26"",""U29"",""P4"",""U22"",""U25"",""P8"",""P2"",""P6"",""P16"",""U10"",""U28"",""U1""]","4","4","0","0","2","2","","2955","","{""confidence_rating"":""Moderately confident""}","confidence_question","[0]","","","","","","","","","walking","Predictable","","","","P29","29","1","20","","","","","","","","","","","","","Moderately confident"
"","","","","","video-keyboard-response","96","2.0.0","995014","83","1","2026-06-08 18:48:01","segmentation_norming_randomized_order_maxrun_attention_v4","90.198.164.41","Mozilla/5.0 (Windows NT 10.0; Win64; x64) AppleWebKit/537.36 (KHTML, like Gecko) Chrome/148.0.0.0 Safari/537.36","WebKit","Chrome","148.0.0.0","Windows","10.0","https://uencdihehs.cognition.run/?PROLIFIC_PID=69ffbea27516957e550655d3&STUDY_ID=6a270c2e609d6ae583c06396&STUDY_ID=6a270c2e609d6ae583c06396&SESSION_ID=6a270e10d83e560726f73282?PROLIFIC_PID=69ffbea27516957e550655d3&SESSION_ID=6a270e10d83e560726f73282?","en-US,en;q=0.9","69ffbea27516957e550655d3","6a270c2e609d6ae583c06396","6a270e10d83e560726f73282?","69ffbea27516957e550655d3","6a270c2e609d6ae583c06396","6a270e10d83e560726f73282?","30","[20,21,14,18,23,15,9,7,19,3,5,27,13,30,11,12,17,24,26,29,4,22,25,8,2,6,16,10,28,1]","[""U20"",""P21"",""U14"",""U18"",""P23"",""P15"",""P9"",""U7"",""U19"",""P3"",""P5"",""P27"",""P13"",""U30"",""U11"",""P12"",""U17"",""P24"",""P26"",""P29"",""U4"",""P22"",""P25"",""U8"",""U2"",""U6"",""U16"",""P10"",""P28"",""P1""]","[""P20"",""U21"",""P14"",""P18"",""U23"",""U15"",""U9"",""P7"",""P19"",""U3"",""U5"",""U27"",""U13"",""P30"",""P11"",""U12"",""P17"",""U24"",""U26"",""U29"",""P4"",""U22"",""U25"",""P8"",""P2"",""P6"",""P16"",""U10"",""U28"",""U1""]","4","4","0","0","2","2","","null","[""bathroom_v2.mp4""]","null","segmentation_video","","","","","","","","","bathroom_v2.mp4","bathroom","Unpredictable","[2.230425,4.998513,6.590172,7.334131,10.24619,13.726668,16.365982,17.542451,18.406172,20.742102,22.990269,24.246192,25.126162,26.629881,29.214453,32.934255,34.766217]","17","","U4","4","1","21","0.7439590000000003","false","false","false","","false","0","0","false","false","false","false",""
"","","","","","survey-multi-choice","99","2.0.0","999170","83","1","2026-06-08 18:48:01","segmentation_norming_randomized_order_maxrun_attention_v4","90.198.164.41","Mozilla/5.0 (Windows NT 10.0; Win64; x64) AppleWebKit/537.36 (KHTML, like Gecko) Chrome/148.0.0.0 Safari/537.36","WebKit","Chrome","148.0.0.0","Windows","10.0","https://uencdihehs.cognition.run/?PROLIFIC_PID=69ffbea27516957e550655d3&STUDY_ID=6a270c2e609d6ae583c06396&STUDY_ID=6a270c2e609d6ae583c06396&SESSION_ID=6a270e10d83e560726f73282?PROLIFIC_PID=69ffbea27516957e550655d3&SESSION_ID=6a270e10d83e560726f73282?","en-US,en;q=0.9","69ffbea27516957e550655d3","6a270c2e609d6ae583c06396","6a270e10d83e560726f73282?","69ffbea27516957e550655d3","6a270c2e609d6ae583c06396","6a270e10d83e560726f73282?","30","[20,21,14,18,23,15,9,7,19,3,5,27,13,30,11,12,17,24,26,29,4,22,25,8,2,6,16,10,28,1]","[""U20"",""P21"",""U14"",""U18"",""P23"",""P15"",""P9"",""U7"",""U19"",""P3"",""P5"",""P27"",""P13"",""U30"",""U11"",""P12"",""U17"",""P24"",""P26"",""P29"",""U4"",""P22"",""P25"",""U8"",""U2"",""U6"",""U16"",""P10"",""P28"",""P1""]","[""P20"",""U21"",""P14"",""P18"",""U23"",""U15"",""U9"",""P7"",""P19"",""U3"",""U5"",""U27"",""U13"",""P30"",""P11"",""U12"",""P17"",""U24"",""U26"",""U29"",""P4"",""U22"",""U25"",""P8"",""P2"",""P6"",""P16"",""U10"",""U28"",""U1""]","4","4","0","0","2","2","","4154","","{""confidence_rating"":""Slightly unconfident""}","confidence_question","[0]","","","","","","","","","bathroom","Unpredictable","","","","U4","4","1","21","","","","","","","","","","","","","Slightly unconfident"
"","","","","","video-keyboard-response","100","2.0.0","1018414","83","1","2026-06-08 18:48:01","segmentation_norming_randomized_order_maxrun_attention_v4","90.198.164.41","Mozilla/5.0 (Windows NT 10.0; Win64; x64) AppleWebKit/537.36 (KHTML, like Gecko) Chrome/148.0.0.0 Safari/537.36","WebKit","Chrome","148.0.0.0","Windows","10.0","https://uencdihehs.cognition.run/?PROLIFIC_PID=69ffbea27516957e550655d3&STUDY_ID=6a270c2e609d6ae583c06396&STUDY_ID=6a270c2e609d6ae583c06396&SESSION_ID=6a270e10d83e560726f73282?PROLIFIC_PID=69ffbea27516957e550655d3&SESSION_ID=6a270e10d83e560726f73282?","en-US,en;q=0.9","69ffbea27516957e550655d3","6a270c2e609d6ae583c06396","6a270e10d83e560726f73282?","69ffbea27516957e550655d3","6a270c2e609d6ae583c06396","6a270e10d83e560726f73282?","30","[20,21,14,18,23,15,9,7,19,3,5,27,13,30,11,12,17,24,26,29,4,22,25,8,2,6,16,10,28,1]","[""U20"",""P21"",""U14"",""U18"",""P23"",""P15"",""P9"",""U7"",""U19"",""P3"",""P5"",""P27"",""P13"",""U30"",""U11"",""P12"",""U17"",""P24"",""P26"",""P29"",""U4"",""P22"",""P25"",""U8"",""U2"",""U6"",""U16"",""P10"",""P28"",""P1""]","[""P20"",""U21"",""P14"",""P18"",""U23"",""U15"",""U9"",""P7"",""P19"",""U3"",""U5"",""U27"",""U13"",""P30"",""P11"",""U12"",""P17"",""U24"",""U26"",""U29"",""P4"",""U22"",""U25"",""P8"",""P2"",""P6"",""P16"",""U10"",""U28"",""U1""]","4","4","0","0","2","2","","null","[""record_v1.mp4""]","null","segmentation_video","","","","","","","","","record_v1.mp4","record","Predictable","[5.750745,8.806222,9.862169,12.078452,15.125698]","5","","P22","22","1","22","1.0559469999999997","false","false","false","","false","0","0","false","false","false","false",""
"","","","","","survey-multi-choice","103","2.0.0","1021496","83","1","2026-06-08 18:48:01","segmentation_norming_randomized_order_maxrun_attention_v4","90.198.164.41","Mozilla/5.0 (Windows NT 10.0; Win64; x64) AppleWebKit/537.36 (KHTML, like Gecko) Chrome/148.0.0.0 Safari/537.36","WebKit","Chrome","148.0.0.0","Windows","10.0","https://uencdihehs.cognition.run/?PROLIFIC_PID=69ffbea27516957e550655d3&STUDY_ID=6a270c2e609d6ae583c06396&STUDY_ID=6a270c2e609d6ae583c06396&SESSION_ID=6a270e10d83e560726f73282?PROLIFIC_PID=69ffbea27516957e550655d3&SESSION_ID=6a270e10d83e560726f73282?","en-US,en;q=0.9","69ffbea27516957e550655d3","6a270c2e609d6ae583c06396","6a270e10d83e560726f73282?","69ffbea27516957e550655d3","6a270c2e609d6ae583c06396","6a270e10d83e560726f73282?","30","[20,21,14,18,23,15,9,7,19,3,5,27,13,30,11,12,17,24,26,29,4,22,25,8,2,6,16,10,28,1]","[""U20"",""P21"",""U14"",""U18"",""P23"",""P15"",""P9"",""U7"",""U19"",""P3"",""P5"",""P27"",""P13"",""U30"",""U11"",""P12"",""U17"",""P24"",""P26"",""P29"",""U4"",""P22"",""P25"",""U8"",""U2"",""U6"",""U16"",""P10"",""P28"",""P1""]","[""P20"",""U21"",""P14"",""P18"",""U23"",""U15"",""U9"",""P7"",""P19"",""U3"",""U5"",""U27"",""U13"",""P30"",""P11"",""U12"",""P17"",""U24"",""U26"",""U29"",""P4"",""U22"",""U25"",""P8"",""P2"",""P6"",""P16"",""U10"",""U28"",""U1""]","4","4","0","0","2","2","","3080","","{""confidence_rating"":""Moderately confident""}","confidence_question","[0]","","","","","","","","","record","Predictable","","","","P22","22","1","22","","","","","","","","","","","","","Moderately confident"
"","","","","","video-keyboard-response","104","2.0.0","1048744","83","1","2026-06-08 18:48:01","segmentation_norming_randomized_order_maxrun_attention_v4","90.198.164.41","Mozilla/5.0 (Windows NT 10.0; Win64; x64) AppleWebKit/537.36 (KHTML, like Gecko) Chrome/148.0.0.0 Safari/537.36","WebKit","Chrome","148.0.0.0","Windows","10.0","https://uencdihehs.cognition.run/?PROLIFIC_PID=69ffbea27516957e550655d3&STUDY_ID=6a270c2e609d6ae583c06396&STUDY_ID=6a270c2e609d6ae583c06396&SESSION_ID=6a270e10d83e560726f73282?PROLIFIC_PID=69ffbea27516957e550655d3&SESSION_ID=6a270e10d83e560726f73282?","en-US,en;q=0.9","69ffbea27516957e550655d3","6a270c2e609d6ae583c06396","6a270e10d83e560726f73282?","69ffbea27516957e550655d3","6a270c2e609d6ae583c06396","6a270e10d83e560726f73282?","30","[20,21,14,18,23,15,9,7,19,3,5,27,13,30,11,12,17,24,26,29,4,22,25,8,2,6,16,10,28,1]","[""U20"",""P21"",""U14"",""U18"",""P23"",""P15"",""P9"",""U7"",""U19"",""P3"",""P5"",""P27"",""P13"",""U30"",""U11"",""P12"",""U17"",""P24"",""P26"",""P29"",""U4"",""P22"",""P25"",""U8"",""U2"",""U6"",""U16"",""P10"",""P28"",""P1""]","[""P20"",""U21"",""P14"",""P18"",""U23"",""U15"",""U9"",""P7"",""P19"",""U3"",""U5"",""U27"",""U13"",""P30"",""P11"",""U12"",""P17"",""U24"",""U26"",""U29"",""P4"",""U22"",""U25"",""P8"",""P2"",""P6"",""P16"",""U10"",""U28"",""U1""]","4","4","0","0","2","2","","null","[""suitcase_v1.mp4""]","null","segmentation_video","","","","","","","","","suitcase_v1.mp4","suitcase","Predictable","[1.058441,2.234223,3.754647,4.602368,6.530764,8.730282,13.066228,15.250467,16.914501,18.290092,20.314366,21.13042]","12","","P25","25","1","23","0.8160540000000012","false","false","false","","false","0","0","false","false","false","false",""
