"success","timeout","failed_images","failed_audio","failed_video","trial_type","trial_index","plugin_version","time_elapsed","run_id","condition","recorded_at","source_code_version","ip","user_agent","device","browser","browser_version","platform","platform_version","referer","accept_language","PROLIFIC_PID","STUDY_ID","SESSION_ID","subject_id","study_id","session_id","pair_count","randomized_pair_order","block1_codes","block2_codes","max_run_block1","max_run_block2","fullscreen_exit_count","tab_switch_count","video_attention_failure_count","total_attention_violation_count","view_history","rt","stimulus","response","trial_kind","question_order","spacebar_question_answer","attention_question_answer","spacebar_question_correct","attention_question_correct","instruction_check_passed","demo_index","demo_code","stimulus_file","stimulus_name","predictability","boundary_times_sec","boundary_count","value","video_code","pair_number","block","global_position_in_block","min_press_gap_sec","no_press_failure","rapid_press_failure","video_attention_failed","video_attention_failure_type","last_video_had_any_attention_violation","current_video_fullscreen_exit_count","current_video_tab_switch_count","current_video_had_fullscreen_exit","current_video_had_tab_switch","current_video_had_video_attention_failure","skipped_video_debug","confidence_rating"
"true","false","[]","[]","[]","preload","0","2.0.0","2942","78","1","2026-06-08 14:27:52","segmentation_norming_randomized_order_maxrun_attention_v4","90.240.109.194","Mozilla/5.0 (Macintosh; Intel Mac OS X 10_15_7) AppleWebKit/537.36 (KHTML, like Gecko) Chrome/148.0.0.0 Safari/537.36","Macintosh","Chrome","148.0.0.0","OS X","10_15_7","https://uencdihehs.cognition.run/?PROLIFIC_PID=65a69840034890b79a097d95&STUDY_ID=6a230fc25d128c9d1b56061a&STUDY_ID=6a230fc25d128c9d1b56061a&SESSION_ID=6a26cf73b0c52c0c7d4d591b?PROLIFIC_PID=65a69840034890b79a097d95&SESSION_ID=6a26cf73b0c52c0c7d4d591b?","en-GB,en;q=0.9","65a69840034890b79a097d95","6a230fc25d128c9d1b56061a","6a26cf73b0c52c0c7d4d591b?","65a69840034890b79a097d95","6a230fc25d128c9d1b56061a","6a26cf73b0c52c0c7d4d591b?","30","[10,8,21,2,24,15,7,26,20,4,29,28,1,25,30,19,11,27,5,3,23,17,6,22,12,14,9,16,13,18]","[""U10"",""U8"",""P21"",""P2"",""P24"",""U15"",""U7"",""U26"",""U20"",""U4"",""P29"",""P28"",""P1"",""U25"",""P30"",""P19"",""P11"",""P27"",""U5"",""U3"",""P23"",""U17"",""P6"",""P22"",""P12"",""U14"",""U9"",""U16"",""U13"",""P18""]","[""P10"",""P8"",""U21"",""U2"",""U24"",""P15"",""P7"",""P26"",""P20"",""P4"",""U29"",""U28"",""U1"",""P25"",""U30"",""U19"",""U11"",""U27"",""P5"",""P3"",""U23"",""P17"",""U6"",""U22"",""U12"",""P14"",""P9"",""P16"",""P13"",""U18""]","5","5","0","0","0","0","","","","","","","","","","","","","","","","","","","","","","","","","","","","","","","","","","","",""
"","","","","","instructions","1","2.0.0","13340","78","1","2026-06-08 14:27:52","segmentation_norming_randomized_order_maxrun_attention_v4","90.240.109.194","Mozilla/5.0 (Macintosh; Intel Mac OS X 10_15_7) AppleWebKit/537.36 (KHTML, like Gecko) Chrome/148.0.0.0 Safari/537.36","Macintosh","Chrome","148.0.0.0","OS X","10_15_7","https://uencdihehs.cognition.run/?PROLIFIC_PID=65a69840034890b79a097d95&STUDY_ID=6a230fc25d128c9d1b56061a&STUDY_ID=6a230fc25d128c9d1b56061a&SESSION_ID=6a26cf73b0c52c0c7d4d591b?PROLIFIC_PID=65a69840034890b79a097d95&SESSION_ID=6a26cf73b0c52c0c7d4d591b?","en-GB,en;q=0.9","65a69840034890b79a097d95","6a230fc25d128c9d1b56061a","6a26cf73b0c52c0c7d4d591b?","65a69840034890b79a097d95","6a230fc25d128c9d1b56061a","6a26cf73b0c52c0c7d4d591b?","30","[10,8,21,2,24,15,7,26,20,4,29,28,1,25,30,19,11,27,5,3,23,17,6,22,12,14,9,16,13,18]","[""U10"",""U8"",""P21"",""P2"",""P24"",""U15"",""U7"",""U26"",""U20"",""U4"",""P29"",""P28"",""P1"",""U25"",""P30"",""P19"",""P11"",""P27"",""U5"",""U3"",""P23"",""U17"",""P6"",""P22"",""P12"",""U14"",""U9"",""U16"",""U13"",""P18""]","[""P10"",""P8"",""U21"",""U2"",""U24"",""P15"",""P7"",""P26"",""P20"",""P4"",""U29"",""U28"",""U1"",""P25"",""U30"",""U19"",""U11"",""U27"",""P5"",""P3"",""U23"",""P17"",""U6"",""U22"",""U12"",""P14"",""P9"",""P16"",""P13"",""U18""]","5","5","0","0","0","0","[{""page_index"":0,""viewing_time"":10397}]","10397","","","","","","","","","","","","","","","","","","","","","","","","","","","","","","","","","",""
"true","","","","","fullscreen","2","2.0.0","15530","78","1","2026-06-08 14:27:52","segmentation_norming_randomized_order_maxrun_attention_v4","90.240.109.194","Mozilla/5.0 (Macintosh; Intel Mac OS X 10_15_7) AppleWebKit/537.36 (KHTML, like Gecko) Chrome/148.0.0.0 Safari/537.36","Macintosh","Chrome","148.0.0.0","OS X","10_15_7","https://uencdihehs.cognition.run/?PROLIFIC_PID=65a69840034890b79a097d95&STUDY_ID=6a230fc25d128c9d1b56061a&STUDY_ID=6a230fc25d128c9d1b56061a&SESSION_ID=6a26cf73b0c52c0c7d4d591b?PROLIFIC_PID=65a69840034890b79a097d95&SESSION_ID=6a26cf73b0c52c0c7d4d591b?","en-GB,en;q=0.9","65a69840034890b79a097d95","6a230fc25d128c9d1b56061a","6a26cf73b0c52c0c7d4d591b?","65a69840034890b79a097d95","6a230fc25d128c9d1b56061a","6a26cf73b0c52c0c7d4d591b?","30","[10,8,21,2,24,15,7,26,20,4,29,28,1,25,30,19,11,27,5,3,23,17,6,22,12,14,9,16,13,18]","[""U10"",""U8"",""P21"",""P2"",""P24"",""U15"",""U7"",""U26"",""U20"",""U4"",""P29"",""P28"",""P1"",""U25"",""P30"",""P19"",""P11"",""P27"",""U5"",""U3"",""P23"",""U17"",""P6"",""P22"",""P12"",""U14"",""U9"",""U16"",""U13"",""P18""]","[""P10"",""P8"",""U21"",""U2"",""U24"",""P15"",""P7"",""P26"",""P20"",""P4"",""U29"",""U28"",""U1"",""P25"",""U30"",""U19"",""U11"",""U27"",""P5"",""P3"",""U23"",""P17"",""U6"",""U22"",""U12"",""P14"",""P9"",""P16"",""P13"",""U18""]","5","5","0","0","0","0","","1185","","","","","","","","","","","","","","","","","","","","","","","","","","","","","","","","","",""
"","","","","","html-button-response","3","2.0.0","21419","78","1","2026-06-08 14:27:52","segmentation_norming_randomized_order_maxrun_attention_v4","90.240.109.194","Mozilla/5.0 (Macintosh; Intel Mac OS X 10_15_7) AppleWebKit/537.36 (KHTML, like Gecko) Chrome/148.0.0.0 Safari/537.36","Macintosh","Chrome","148.0.0.0","OS X","10_15_7","https://uencdihehs.cognition.run/?PROLIFIC_PID=65a69840034890b79a097d95&STUDY_ID=6a230fc25d128c9d1b56061a&STUDY_ID=6a230fc25d128c9d1b56061a&SESSION_ID=6a26cf73b0c52c0c7d4d591b?PROLIFIC_PID=65a69840034890b79a097d95&SESSION_ID=6a26cf73b0c52c0c7d4d591b?","en-GB,en;q=0.9","65a69840034890b79a097d95","6a230fc25d128c9d1b56061a","6a26cf73b0c52c0c7d4d591b?","65a69840034890b79a097d95","6a230fc25d128c9d1b56061a","6a26cf73b0c52c0c7d4d591b?","30","[10,8,21,2,24,15,7,26,20,4,29,28,1,25,30,19,11,27,5,3,23,17,6,22,12,14,9,16,13,18]","[""U10"",""U8"",""P21"",""P2"",""P24"",""U15"",""U7"",""U26"",""U20"",""U4"",""P29"",""P28"",""P1"",""U25"",""P30"",""P19"",""P11"",""P27"",""U5"",""U3"",""P23"",""U17"",""P6"",""P22"",""P12"",""U14"",""U9"",""U16"",""U13"",""P18""]","[""P10"",""P8"",""U21"",""U2"",""U24"",""P15"",""P7"",""P26"",""P20"",""P4"",""U29"",""U28"",""U1"",""P25"",""U30"",""U19"",""U11"",""U27"",""P5"",""P3"",""U23"",""P17"",""U6"",""U22"",""U12"",""P14"",""P9"",""P16"",""P13"",""U18""]","5","5","0","0","0","0","","5887","The experiment requires continuous attention and full-screen participation throughout the task.<br><br>You may be asked to exit the experiment and cancel your participation if you exit Full Screen Mode, switch tabs, or fail to meet the attention criteria more than the allowed number of times.<br><br>Please read the following instructions carefully.","0","","","","","","","","","","","","","","","","","","","","","","","","","","","","","","","",""
"","","","","","instructions","4","2.0.0","42390","78","1","2026-06-08 14:27:52","segmentation_norming_randomized_order_maxrun_attention_v4","90.240.109.194","Mozilla/5.0 (Macintosh; Intel Mac OS X 10_15_7) AppleWebKit/537.36 (KHTML, like Gecko) Chrome/148.0.0.0 Safari/537.36","Macintosh","Chrome","148.0.0.0","OS X","10_15_7","https://uencdihehs.cognition.run/?PROLIFIC_PID=65a69840034890b79a097d95&STUDY_ID=6a230fc25d128c9d1b56061a&STUDY_ID=6a230fc25d128c9d1b56061a&SESSION_ID=6a26cf73b0c52c0c7d4d591b?PROLIFIC_PID=65a69840034890b79a097d95&SESSION_ID=6a26cf73b0c52c0c7d4d591b?","en-GB,en;q=0.9","65a69840034890b79a097d95","6a230fc25d128c9d1b56061a","6a26cf73b0c52c0c7d4d591b?","65a69840034890b79a097d95","6a230fc25d128c9d1b56061a","6a26cf73b0c52c0c7d4d591b?","30","[10,8,21,2,24,15,7,26,20,4,29,28,1,25,30,19,11,27,5,3,23,17,6,22,12,14,9,16,13,18]","[""U10"",""U8"",""P21"",""P2"",""P24"",""U15"",""U7"",""U26"",""U20"",""U4"",""P29"",""P28"",""P1"",""U25"",""P30"",""P19"",""P11"",""P27"",""U5"",""U3"",""P23"",""U17"",""P6"",""P22"",""P12"",""U14"",""U9"",""U16"",""U13"",""P18""]","[""P10"",""P8"",""U21"",""U2"",""U24"",""P15"",""P7"",""P26"",""P20"",""P4"",""U29"",""U28"",""U1"",""P25"",""U30"",""U19"",""U11"",""U27"",""P5"",""P3"",""U23"",""P17"",""U6"",""U22"",""U12"",""P14"",""P9"",""P16"",""P13"",""U18""]","5","5","0","0","0","0","[{""page_index"":0,""viewing_time"":20970}]","20970","","","","","","","","","","","","","","","","","","","","","","","","","","","","","","","","","",""
"","","","","","html-button-response","5","2.0.0","50904","78","1","2026-06-08 14:27:52","segmentation_norming_randomized_order_maxrun_attention_v4","90.240.109.194","Mozilla/5.0 (Macintosh; Intel Mac OS X 10_15_7) AppleWebKit/537.36 (KHTML, like Gecko) Chrome/148.0.0.0 Safari/537.36","Macintosh","Chrome","148.0.0.0","OS X","10_15_7","https://uencdihehs.cognition.run/?PROLIFIC_PID=65a69840034890b79a097d95&STUDY_ID=6a230fc25d128c9d1b56061a&STUDY_ID=6a230fc25d128c9d1b56061a&SESSION_ID=6a26cf73b0c52c0c7d4d591b?PROLIFIC_PID=65a69840034890b79a097d95&SESSION_ID=6a26cf73b0c52c0c7d4d591b?","en-GB,en;q=0.9","65a69840034890b79a097d95","6a230fc25d128c9d1b56061a","6a26cf73b0c52c0c7d4d591b?","65a69840034890b79a097d95","6a230fc25d128c9d1b56061a","6a26cf73b0c52c0c7d4d591b?","30","[10,8,21,2,24,15,7,26,20,4,29,28,1,25,30,19,11,27,5,3,23,17,6,22,12,14,9,16,13,18]","[""U10"",""U8"",""P21"",""P2"",""P24"",""U15"",""U7"",""U26"",""U20"",""U4"",""P29"",""P28"",""P1"",""U25"",""P30"",""P19"",""P11"",""P27"",""U5"",""U3"",""P23"",""U17"",""P6"",""P22"",""P12"",""U14"",""U9"",""U16"",""U13"",""P18""]","[""P10"",""P8"",""U21"",""U2"",""U24"",""P15"",""P7"",""P26"",""P20"",""P4"",""U29"",""U28"",""U1"",""P25"",""U30"",""U19"",""U11"",""U27"",""P5"",""P3"",""U23"",""P17"",""U6"",""U22"",""U12"",""P14"",""P9"",""P16"",""P13"",""U18""]","5","5","0","0","0","0","","8513","Please pay attention when watching videos and marking boundaries.<br><br>There are several hidden attention criteria to make sure you watch the videos carefully.<br><br>If you fail these hidden criteria more than the allowed number of times, you may be asked to exit the experiment.","0","","","","","","","","","","","","","","","","","","","","","","","","","","","","","","","",""
"","","","","","survey-multi-choice","6","2.0.0","62136","78","1","2026-06-08 14:27:52","segmentation_norming_randomized_order_maxrun_attention_v4","90.240.109.194","Mozilla/5.0 (Macintosh; Intel Mac OS X 10_15_7) AppleWebKit/537.36 (KHTML, like Gecko) Chrome/148.0.0.0 Safari/537.36","Macintosh","Chrome","148.0.0.0","OS X","10_15_7","https://uencdihehs.cognition.run/?PROLIFIC_PID=65a69840034890b79a097d95&STUDY_ID=6a230fc25d128c9d1b56061a&STUDY_ID=6a230fc25d128c9d1b56061a&SESSION_ID=6a26cf73b0c52c0c7d4d591b?PROLIFIC_PID=65a69840034890b79a097d95&SESSION_ID=6a26cf73b0c52c0c7d4d591b?","en-GB,en;q=0.9","65a69840034890b79a097d95","6a230fc25d128c9d1b56061a","6a26cf73b0c52c0c7d4d591b?","65a69840034890b79a097d95","6a230fc25d128c9d1b56061a","6a26cf73b0c52c0c7d4d591b?","30","[10,8,21,2,24,15,7,26,20,4,29,28,1,25,30,19,11,27,5,3,23,17,6,22,12,14,9,16,13,18]","[""U10"",""U8"",""P21"",""P2"",""P24"",""U15"",""U7"",""U26"",""U20"",""U4"",""P29"",""P28"",""P1"",""U25"",""P30"",""P19"",""P11"",""P27"",""U5"",""U3"",""P23"",""U17"",""P6"",""P22"",""P12"",""U14"",""U9"",""U16"",""U13"",""P18""]","[""P10"",""P8"",""U21"",""U2"",""U24"",""P15"",""P7"",""P26"",""P20"",""P4"",""U29"",""U28"",""U1"",""P25"",""U30"",""U19"",""U11"",""U27"",""P5"",""P3"",""U23"",""P17"",""U6"",""U22"",""U12"",""P14"",""P9"",""P16"",""P13"",""U18""]","5","5","0","0","0","0","","11229","","{""spacebar_question"":""Between the smallest meaningful events or actions"",""attention_question"":""Press space bar to segment the video""}","comprehension_check","[0,1]","Between the smallest meaningful events or actions","Press space bar to segment the video","true","true","true","","","","","","","","","","","","","","","","","","","","","","","","",""
"","","","","","html-button-response","8","2.0.0","149101","78","1","2026-06-08 14:27:52","segmentation_norming_randomized_order_maxrun_attention_v4","90.240.109.194","Mozilla/5.0 (Macintosh; Intel Mac OS X 10_15_7) AppleWebKit/537.36 (KHTML, like Gecko) Chrome/148.0.0.0 Safari/537.36","Macintosh","Chrome","148.0.0.0","OS X","10_15_7","https://uencdihehs.cognition.run/?PROLIFIC_PID=65a69840034890b79a097d95&STUDY_ID=6a230fc25d128c9d1b56061a&STUDY_ID=6a230fc25d128c9d1b56061a&SESSION_ID=6a26cf73b0c52c0c7d4d591b?PROLIFIC_PID=65a69840034890b79a097d95&SESSION_ID=6a26cf73b0c52c0c7d4d591b?","en-GB,en;q=0.9","65a69840034890b79a097d95","6a230fc25d128c9d1b56061a","6a26cf73b0c52c0c7d4d591b?","65a69840034890b79a097d95","6a230fc25d128c9d1b56061a","6a26cf73b0c52c0c7d4d591b?","30","[10,8,21,2,24,15,7,26,20,4,29,28,1,25,30,19,11,27,5,3,23,17,6,22,12,14,9,16,13,18]","[""U10"",""U8"",""P21"",""P2"",""P24"",""U15"",""U7"",""U26"",""U20"",""U4"",""P29"",""P28"",""P1"",""U25"",""P30"",""P19"",""P11"",""P27"",""U5"",""U3"",""P23"",""U17"",""P6"",""P22"",""P12"",""U14"",""U9"",""U16"",""U13"",""P18""]","[""P10"",""P8"",""U21"",""U2"",""U24"",""P15"",""P7"",""P26"",""P20"",""P4"",""U29"",""U28"",""U1"",""P25"",""U30"",""U19"",""U11"",""U27"",""P5"",""P3"",""U23"",""P17"",""U6"",""U22"",""U12"",""P14"",""P9"",""P16"",""P13"",""U18""]","5","5","0","0","0","0","","86963","You have learned the instructions for the task! Here is a demo trial.<br><br>Like what you will do in the main experiment,<br><br> you will watch a movie clip and at the same time mark off the activity in the movie into the <strong>smallest meaningful units</strong> that seem natural and meaningful to you.<br><br>Remember, tap the <strong>SPACE BAR</strong> to mark off a boundary between two <strong>smallest meaningful units</strong> of activity.<br><br>A green bar will appear at the bottom of the screen when you press the button.<br><br>","0","","","","","","","","","","","","","","","","","","","","","","","","","","","","","","","",""
"","","","","","video-keyboard-response","9","2.0.0","165535","78","1","2026-06-08 14:27:52","segmentation_norming_randomized_order_maxrun_attention_v4","90.240.109.194","Mozilla/5.0 (Macintosh; Intel Mac OS X 10_15_7) AppleWebKit/537.36 (KHTML, like Gecko) Chrome/148.0.0.0 Safari/537.36","Macintosh","Chrome","148.0.0.0","OS X","10_15_7","https://uencdihehs.cognition.run/?PROLIFIC_PID=65a69840034890b79a097d95&STUDY_ID=6a230fc25d128c9d1b56061a&STUDY_ID=6a230fc25d128c9d1b56061a&SESSION_ID=6a26cf73b0c52c0c7d4d591b?PROLIFIC_PID=65a69840034890b79a097d95&SESSION_ID=6a26cf73b0c52c0c7d4d591b?","en-GB,en;q=0.9","65a69840034890b79a097d95","6a230fc25d128c9d1b56061a","6a26cf73b0c52c0c7d4d591b?","65a69840034890b79a097d95","6a230fc25d128c9d1b56061a","6a26cf73b0c52c0c7d4d591b?","30","[10,8,21,2,24,15,7,26,20,4,29,28,1,25,30,19,11,27,5,3,23,17,6,22,12,14,9,16,13,18]","[""U10"",""U8"",""P21"",""P2"",""P24"",""U15"",""U7"",""U26"",""U20"",""U4"",""P29"",""P28"",""P1"",""U25"",""P30"",""P19"",""P11"",""P27"",""U5"",""U3"",""P23"",""U17"",""P6"",""P22"",""P12"",""U14"",""U9"",""U16"",""U13"",""P18""]","[""P10"",""P8"",""U21"",""U2"",""U24"",""P15"",""P7"",""P26"",""P20"",""P4"",""U29"",""U28"",""U1"",""P25"",""U30"",""U19"",""U11"",""U27"",""P5"",""P3"",""U23"",""P17"",""U6"",""U22"",""U12"",""P14"",""P9"",""P16"",""P13"",""U18""]","5","5","0","0","0","0","","null","[""library_v1.mp4""]","null","demo_video","","","","","","","1","demo1","library_v1.mp4","library","Demo","[5.027286,10.751503]","2","","","","","","","","","","","","","","","","","",""
"","","","","","call-function","10","2.0.0","165536","78","1","2026-06-08 14:27:52","segmentation_norming_randomized_order_maxrun_attention_v4","90.240.109.194","Mozilla/5.0 (Macintosh; Intel Mac OS X 10_15_7) AppleWebKit/537.36 (KHTML, like Gecko) Chrome/148.0.0.0 Safari/537.36","Macintosh","Chrome","148.0.0.0","OS X","10_15_7","https://uencdihehs.cognition.run/?PROLIFIC_PID=65a69840034890b79a097d95&STUDY_ID=6a230fc25d128c9d1b56061a&STUDY_ID=6a230fc25d128c9d1b56061a&SESSION_ID=6a26cf73b0c52c0c7d4d591b?PROLIFIC_PID=65a69840034890b79a097d95&SESSION_ID=6a26cf73b0c52c0c7d4d591b?","en-GB,en;q=0.9","65a69840034890b79a097d95","6a230fc25d128c9d1b56061a","6a26cf73b0c52c0c7d4d591b?","65a69840034890b79a097d95","6a230fc25d128c9d1b56061a","6a26cf73b0c52c0c7d4d591b?","30","[10,8,21,2,24,15,7,26,20,4,29,28,1,25,30,19,11,27,5,3,23,17,6,22,12,14,9,16,13,18]","[""U10"",""U8"",""P21"",""P2"",""P24"",""U15"",""U7"",""U26"",""U20"",""U4"",""P29"",""P28"",""P1"",""U25"",""P30"",""P19"",""P11"",""P27"",""U5"",""U3"",""P23"",""U17"",""P6"",""P22"",""P12"",""U14"",""U9"",""U16"",""U13"",""P18""]","[""P10"",""P8"",""U21"",""U2"",""U24"",""P15"",""P7"",""P26"",""P20"",""P4"",""U29"",""U28"",""U1"",""P25"",""U30"",""U19"",""U11"",""U27"",""P5"",""P3"",""U23"",""P17"",""U6"",""U22"",""U12"",""P14"",""P9"",""P16"",""P13"",""U18""]","5","5","0","0","0","0","","","","","","","","","","","","","","","","","","","","","","","","","","","","","","","","","","","",""
"","","","","","html-button-response","11","2.0.0","176192","78","1","2026-06-08 14:27:52","segmentation_norming_randomized_order_maxrun_attention_v4","90.240.109.194","Mozilla/5.0 (Macintosh; Intel Mac OS X 10_15_7) AppleWebKit/537.36 (KHTML, like Gecko) Chrome/148.0.0.0 Safari/537.36","Macintosh","Chrome","148.0.0.0","OS X","10_15_7","https://uencdihehs.cognition.run/?PROLIFIC_PID=65a69840034890b79a097d95&STUDY_ID=6a230fc25d128c9d1b56061a&STUDY_ID=6a230fc25d128c9d1b56061a&SESSION_ID=6a26cf73b0c52c0c7d4d591b?PROLIFIC_PID=65a69840034890b79a097d95&SESSION_ID=6a26cf73b0c52c0c7d4d591b?","en-GB,en;q=0.9","65a69840034890b79a097d95","6a230fc25d128c9d1b56061a","6a26cf73b0c52c0c7d4d591b?","65a69840034890b79a097d95","6a230fc25d128c9d1b56061a","6a26cf73b0c52c0c7d4d591b?","30","[10,8,21,2,24,15,7,26,20,4,29,28,1,25,30,19,11,27,5,3,23,17,6,22,12,14,9,16,13,18]","[""U10"",""U8"",""P21"",""P2"",""P24"",""U15"",""U7"",""U26"",""U20"",""U4"",""P29"",""P28"",""P1"",""U25"",""P30"",""P19"",""P11"",""P27"",""U5"",""U3"",""P23"",""U17"",""P6"",""P22"",""P12"",""U14"",""U9"",""U16"",""U13"",""P18""]","[""P10"",""P8"",""U21"",""U2"",""U24"",""P15"",""P7"",""P26"",""P20"",""P4"",""U29"",""U28"",""U1"",""P25"",""U30"",""U19"",""U11"",""U27"",""P5"",""P3"",""U23"",""P17"",""U6"",""U22"",""U12"",""P14"",""P9"",""P16"",""P13"",""U18""]","5","5","0","0","0","0","","10655","Usually people tend to press the button more times than you did.<br><br>As a reminder, press the <strong>SPACE BAR</strong> whenever one <strong>smallest meaningful unit</strong> of activity ends and another begins.<br><br>Let's try another demo trial.<br><br>","0","demo_feedback","","","","","","","","","","","","","","","","","","","","","","","","","","","","","","",""
"","","","","","video-keyboard-response","12","2.0.0","211718","78","1","2026-06-08 14:27:52","segmentation_norming_randomized_order_maxrun_attention_v4","90.240.109.194","Mozilla/5.0 (Macintosh; Intel Mac OS X 10_15_7) AppleWebKit/537.36 (KHTML, like Gecko) Chrome/148.0.0.0 Safari/537.36","Macintosh","Chrome","148.0.0.0","OS X","10_15_7","https://uencdihehs.cognition.run/?PROLIFIC_PID=65a69840034890b79a097d95&STUDY_ID=6a230fc25d128c9d1b56061a&STUDY_ID=6a230fc25d128c9d1b56061a&SESSION_ID=6a26cf73b0c52c0c7d4d591b?PROLIFIC_PID=65a69840034890b79a097d95&SESSION_ID=6a26cf73b0c52c0c7d4d591b?","en-GB,en;q=0.9","65a69840034890b79a097d95","6a230fc25d128c9d1b56061a","6a26cf73b0c52c0c7d4d591b?","65a69840034890b79a097d95","6a230fc25d128c9d1b56061a","6a26cf73b0c52c0c7d4d591b?","30","[10,8,21,2,24,15,7,26,20,4,29,28,1,25,30,19,11,27,5,3,23,17,6,22,12,14,9,16,13,18]","[""U10"",""U8"",""P21"",""P2"",""P24"",""U15"",""U7"",""U26"",""U20"",""U4"",""P29"",""P28"",""P1"",""U25"",""P30"",""P19"",""P11"",""P27"",""U5"",""U3"",""P23"",""U17"",""P6"",""P22"",""P12"",""U14"",""U9"",""U16"",""U13"",""P18""]","[""P10"",""P8"",""U21"",""U2"",""U24"",""P15"",""P7"",""P26"",""P20"",""P4"",""U29"",""U28"",""U1"",""P25"",""U30"",""U19"",""U11"",""U27"",""P5"",""P3"",""U23"",""P17"",""U6"",""U22"",""U12"",""P14"",""P9"",""P16"",""P13"",""U18""]","5","5","0","0","0","0","","null","[""garden_v1.mp4""]","null","demo_video","","","","","","","2","demo2","garden_v1.mp4","garden","Demo","[1.492928,3.712396,5.706927,6.635704,9.489194,11.366386,13.125465,15.073952,18.52606,20.140819,21.457113,22.719016,25.222793,31.707669]","14","","","","","","","","","","","","","","","","","",""
"","","","","","call-function","13","2.0.0","211719","78","1","2026-06-08 14:27:52","segmentation_norming_randomized_order_maxrun_attention_v4","90.240.109.194","Mozilla/5.0 (Macintosh; Intel Mac OS X 10_15_7) AppleWebKit/537.36 (KHTML, like Gecko) Chrome/148.0.0.0 Safari/537.36","Macintosh","Chrome","148.0.0.0","OS X","10_15_7","https://uencdihehs.cognition.run/?PROLIFIC_PID=65a69840034890b79a097d95&STUDY_ID=6a230fc25d128c9d1b56061a&STUDY_ID=6a230fc25d128c9d1b56061a&SESSION_ID=6a26cf73b0c52c0c7d4d591b?PROLIFIC_PID=65a69840034890b79a097d95&SESSION_ID=6a26cf73b0c52c0c7d4d591b?","en-GB,en;q=0.9","65a69840034890b79a097d95","6a230fc25d128c9d1b56061a","6a26cf73b0c52c0c7d4d591b?","65a69840034890b79a097d95","6a230fc25d128c9d1b56061a","6a26cf73b0c52c0c7d4d591b?","30","[10,8,21,2,24,15,7,26,20,4,29,28,1,25,30,19,11,27,5,3,23,17,6,22,12,14,9,16,13,18]","[""U10"",""U8"",""P21"",""P2"",""P24"",""U15"",""U7"",""U26"",""U20"",""U4"",""P29"",""P28"",""P1"",""U25"",""P30"",""P19"",""P11"",""P27"",""U5"",""U3"",""P23"",""U17"",""P6"",""P22"",""P12"",""U14"",""U9"",""U16"",""U13"",""P18""]","[""P10"",""P8"",""U21"",""U2"",""U24"",""P15"",""P7"",""P26"",""P20"",""P4"",""U29"",""U28"",""U1"",""P25"",""U30"",""U19"",""U11"",""U27"",""P5"",""P3"",""U23"",""P17"",""U6"",""U22"",""U12"",""P14"",""P9"",""P16"",""P13"",""U18""]","5","5","0","0","0","0","","","","","","","","","","","","","","","","","","","","","","","","","","","","","","","","","","","",""
"","","","","","html-button-response","14","2.0.0","264165","78","1","2026-06-08 14:27:52","segmentation_norming_randomized_order_maxrun_attention_v4","90.240.109.194","Mozilla/5.0 (Macintosh; Intel Mac OS X 10_15_7) AppleWebKit/537.36 (KHTML, like Gecko) Chrome/148.0.0.0 Safari/537.36","Macintosh","Chrome","148.0.0.0","OS X","10_15_7","https://uencdihehs.cognition.run/?PROLIFIC_PID=65a69840034890b79a097d95&STUDY_ID=6a230fc25d128c9d1b56061a&STUDY_ID=6a230fc25d128c9d1b56061a&SESSION_ID=6a26cf73b0c52c0c7d4d591b?PROLIFIC_PID=65a69840034890b79a097d95&SESSION_ID=6a26cf73b0c52c0c7d4d591b?","en-GB,en;q=0.9","65a69840034890b79a097d95","6a230fc25d128c9d1b56061a","6a26cf73b0c52c0c7d4d591b?","65a69840034890b79a097d95","6a230fc25d128c9d1b56061a","6a26cf73b0c52c0c7d4d591b?","30","[10,8,21,2,24,15,7,26,20,4,29,28,1,25,30,19,11,27,5,3,23,17,6,22,12,14,9,16,13,18]","[""U10"",""U8"",""P21"",""P2"",""P24"",""U15"",""U7"",""U26"",""U20"",""U4"",""P29"",""P28"",""P1"",""U25"",""P30"",""P19"",""P11"",""P27"",""U5"",""U3"",""P23"",""U17"",""P6"",""P22"",""P12"",""U14"",""U9"",""U16"",""U13"",""P18""]","[""P10"",""P8"",""U21"",""U2"",""U24"",""P15"",""P7"",""P26"",""P20"",""P4"",""U29"",""U28"",""U1"",""P25"",""U30"",""U19"",""U11"",""U27"",""P5"",""P3"",""U23"",""P17"",""U6"",""U22"",""U12"",""P14"",""P9"",""P16"",""P13"",""U18""]","5","5","0","0","0","0","","52446","Usually people tend to press the button more times than you did.<br><br>As a reminder, press the <strong>SPACE BAR</strong> whenever one <strong>smallest meaningful unit</strong> of activity ends and another begins.<br><br>Let's try another demo trial.<br><br>","0","demo_feedback","","","","","","","","","","","","","","","","","","","","","","","","","","","","","","",""
"","","","","","video-keyboard-response","15","2.0.0","288759","78","1","2026-06-08 14:27:52","segmentation_norming_randomized_order_maxrun_attention_v4","90.240.109.194","Mozilla/5.0 (Macintosh; Intel Mac OS X 10_15_7) AppleWebKit/537.36 (KHTML, like Gecko) Chrome/148.0.0.0 Safari/537.36","Macintosh","Chrome","148.0.0.0","OS X","10_15_7","https://uencdihehs.cognition.run/?PROLIFIC_PID=65a69840034890b79a097d95&STUDY_ID=6a230fc25d128c9d1b56061a&STUDY_ID=6a230fc25d128c9d1b56061a&SESSION_ID=6a26cf73b0c52c0c7d4d591b?PROLIFIC_PID=65a69840034890b79a097d95&SESSION_ID=6a26cf73b0c52c0c7d4d591b?","en-GB,en;q=0.9","65a69840034890b79a097d95","6a230fc25d128c9d1b56061a","6a26cf73b0c52c0c7d4d591b?","65a69840034890b79a097d95","6a230fc25d128c9d1b56061a","6a26cf73b0c52c0c7d4d591b?","30","[10,8,21,2,24,15,7,26,20,4,29,28,1,25,30,19,11,27,5,3,23,17,6,22,12,14,9,16,13,18]","[""U10"",""U8"",""P21"",""P2"",""P24"",""U15"",""U7"",""U26"",""U20"",""U4"",""P29"",""P28"",""P1"",""U25"",""P30"",""P19"",""P11"",""P27"",""U5"",""U3"",""P23"",""U17"",""P6"",""P22"",""P12"",""U14"",""U9"",""U16"",""U13"",""P18""]","[""P10"",""P8"",""U21"",""U2"",""U24"",""P15"",""P7"",""P26"",""P20"",""P4"",""U29"",""U28"",""U1"",""P25"",""U30"",""U19"",""U11"",""U27"",""P5"",""P3"",""U23"",""P17"",""U6"",""U22"",""U12"",""P14"",""P9"",""P16"",""P13"",""U18""]","5","5","0","0","0","0","","null","[""vending_v1.mp4""]","null","demo_video","","","","","","","3","demo3","vending_v1.mp4","vending","Demo","[35.413313,1.014681,35.413313,2.237415,35.413313,4.596135,35.413313,5.023951,35.413313,6.078176,35.413313,6.753182,35.413313,8.955288,35.413313,11.548867,35.413313,11.889665,35.413313,12.370922,35.413313,12.667766,35.413313,14.762088,35.413313,15.673355,35.413313,18.057788,35.413313,18.312461,35.413313,20.302641,35.413313,22.292952,35.413313,22.67331,35.413313,23.209572,35.413313,24.319979]","40","","","","","","","","","","","","","","","","","",""
"","","","","","call-function","16","2.0.0","288759","78","1","2026-06-08 14:27:52","segmentation_norming_randomized_order_maxrun_attention_v4","90.240.109.194","Mozilla/5.0 (Macintosh; Intel Mac OS X 10_15_7) AppleWebKit/537.36 (KHTML, like Gecko) Chrome/148.0.0.0 Safari/537.36","Macintosh","Chrome","148.0.0.0","OS X","10_15_7","https://uencdihehs.cognition.run/?PROLIFIC_PID=65a69840034890b79a097d95&STUDY_ID=6a230fc25d128c9d1b56061a&STUDY_ID=6a230fc25d128c9d1b56061a&SESSION_ID=6a26cf73b0c52c0c7d4d591b?PROLIFIC_PID=65a69840034890b79a097d95&SESSION_ID=6a26cf73b0c52c0c7d4d591b?","en-GB,en;q=0.9","65a69840034890b79a097d95","6a230fc25d128c9d1b56061a","6a26cf73b0c52c0c7d4d591b?","65a69840034890b79a097d95","6a230fc25d128c9d1b56061a","6a26cf73b0c52c0c7d4d591b?","30","[10,8,21,2,24,15,7,26,20,4,29,28,1,25,30,19,11,27,5,3,23,17,6,22,12,14,9,16,13,18]","[""U10"",""U8"",""P21"",""P2"",""P24"",""U15"",""U7"",""U26"",""U20"",""U4"",""P29"",""P28"",""P1"",""U25"",""P30"",""P19"",""P11"",""P27"",""U5"",""U3"",""P23"",""U17"",""P6"",""P22"",""P12"",""U14"",""U9"",""U16"",""U13"",""P18""]","[""P10"",""P8"",""U21"",""U2"",""U24"",""P15"",""P7"",""P26"",""P20"",""P4"",""U29"",""U28"",""U1"",""P25"",""U30"",""U19"",""U11"",""U27"",""P5"",""P3"",""U23"",""P17"",""U6"",""U22"",""U12"",""P14"",""P9"",""P16"",""P13"",""U18""]","5","5","0","0","0","0","","","","","","","","","","","","","","","","","","","","","","","","","","","","","","","","","","","",""
"","","","","","html-button-response","17","2.0.0","311628","78","1","2026-06-08 14:27:52","segmentation_norming_randomized_order_maxrun_attention_v4","90.240.109.194","Mozilla/5.0 (Macintosh; Intel Mac OS X 10_15_7) AppleWebKit/537.36 (KHTML, like Gecko) Chrome/148.0.0.0 Safari/537.36","Macintosh","Chrome","148.0.0.0","OS X","10_15_7","https://uencdihehs.cognition.run/?PROLIFIC_PID=65a69840034890b79a097d95&STUDY_ID=6a230fc25d128c9d1b56061a&STUDY_ID=6a230fc25d128c9d1b56061a&SESSION_ID=6a26cf73b0c52c0c7d4d591b?PROLIFIC_PID=65a69840034890b79a097d95&SESSION_ID=6a26cf73b0c52c0c7d4d591b?","en-GB,en;q=0.9","65a69840034890b79a097d95","6a230fc25d128c9d1b56061a","6a26cf73b0c52c0c7d4d591b?","65a69840034890b79a097d95","6a230fc25d128c9d1b56061a","6a26cf73b0c52c0c7d4d591b?","30","[10,8,21,2,24,15,7,26,20,4,29,28,1,25,30,19,11,27,5,3,23,17,6,22,12,14,9,16,13,18]","[""U10"",""U8"",""P21"",""P2"",""P24"",""U15"",""U7"",""U26"",""U20"",""U4"",""P29"",""P28"",""P1"",""U25"",""P30"",""P19"",""P11"",""P27"",""U5"",""U3"",""P23"",""U17"",""P6"",""P22"",""P12"",""U14"",""U9"",""U16"",""U13"",""P18""]","[""P10"",""P8"",""U21"",""U2"",""U24"",""P15"",""P7"",""P26"",""P20"",""P4"",""U29"",""U28"",""U1"",""P25"",""U30"",""U19"",""U11"",""U27"",""P5"",""P3"",""U23"",""P17"",""U6"",""U22"",""U12"",""P14"",""P9"",""P16"",""P13"",""U18""]","5","5","0","0","0","0","","22868","Usually people tend to press the button fewer times than you did.<br><br>As a reminder, press the <strong>SPACE BAR</strong> whenever one <strong>smallest meaningful unit</strong> of activity ends and another begins.<br><br>Let's try another demo trial.<br><br>","0","demo_feedback","","","","","","","","","","","","","","","","","","","","","","","","","","","","","","",""
"","","","","","video-keyboard-response","18","2.0.0","355252","78","1","2026-06-08 14:27:52","segmentation_norming_randomized_order_maxrun_attention_v4","90.240.109.194","Mozilla/5.0 (Macintosh; Intel Mac OS X 10_15_7) AppleWebKit/537.36 (KHTML, like Gecko) Chrome/148.0.0.0 Safari/537.36","Macintosh","Chrome","148.0.0.0","OS X","10_15_7","https://uencdihehs.cognition.run/?PROLIFIC_PID=65a69840034890b79a097d95&STUDY_ID=6a230fc25d128c9d1b56061a&STUDY_ID=6a230fc25d128c9d1b56061a&SESSION_ID=6a26cf73b0c52c0c7d4d591b?PROLIFIC_PID=65a69840034890b79a097d95&SESSION_ID=6a26cf73b0c52c0c7d4d591b?","en-GB,en;q=0.9","65a69840034890b79a097d95","6a230fc25d128c9d1b56061a","6a26cf73b0c52c0c7d4d591b?","65a69840034890b79a097d95","6a230fc25d128c9d1b56061a","6a26cf73b0c52c0c7d4d591b?","30","[10,8,21,2,24,15,7,26,20,4,29,28,1,25,30,19,11,27,5,3,23,17,6,22,12,14,9,16,13,18]","[""U10"",""U8"",""P21"",""P2"",""P24"",""U15"",""U7"",""U26"",""U20"",""U4"",""P29"",""P28"",""P1"",""U25"",""P30"",""P19"",""P11"",""P27"",""U5"",""U3"",""P23"",""U17"",""P6"",""P22"",""P12"",""U14"",""U9"",""U16"",""U13"",""P18""]","[""P10"",""P8"",""U21"",""U2"",""U24"",""P15"",""P7"",""P26"",""P20"",""P4"",""U29"",""U28"",""U1"",""P25"",""U30"",""U19"",""U11"",""U27"",""P5"",""P3"",""U23"",""P17"",""U6"",""U22"",""U12"",""P14"",""P9"",""P16"",""P13"",""U18""]","5","5","0","0","0","0","","null","[""getting_ready_v1.mp4""]","null","demo_video","","","","","","","4","demo4","getting_ready_v1.mp4","getting_ready","Demo","[35.413313,24.319979,1.702796,35.413313,24.319979,5.145891,35.413313,24.319979,6.025092,35.413313,24.319979,7.653238,35.413313,24.319979,11.229235,35.413313,24.319979,13.044389,35.413313,24.319979,13.783854,35.413313,24.319979,15.154888,35.413313,24.319979,16.490055,35.413313,24.319979,20.602152,35.413313,24.319979,21.443922,35.413313,24.319979,24.061832,35.413313,24.319979,24.702276,35.413313,24.319979,28.620348,35.413313,24.319979,30.209133,35.413313,24.319979,31.195516,35.413313,24.319979,33.633035,35.413313,24.319979,35.780217,35.413313,24.319979,37.16004,35.413313,24.319979,42.315604]","60","","","","","","","","","","","","","","","","","",""
"","","","","","call-function","19","2.0.0","355253","78","1","2026-06-08 14:27:52","segmentation_norming_randomized_order_maxrun_attention_v4","90.240.109.194","Mozilla/5.0 (Macintosh; Intel Mac OS X 10_15_7) AppleWebKit/537.36 (KHTML, like Gecko) Chrome/148.0.0.0 Safari/537.36","Macintosh","Chrome","148.0.0.0","OS X","10_15_7","https://uencdihehs.cognition.run/?PROLIFIC_PID=65a69840034890b79a097d95&STUDY_ID=6a230fc25d128c9d1b56061a&STUDY_ID=6a230fc25d128c9d1b56061a&SESSION_ID=6a26cf73b0c52c0c7d4d591b?PROLIFIC_PID=65a69840034890b79a097d95&SESSION_ID=6a26cf73b0c52c0c7d4d591b?","en-GB,en;q=0.9","65a69840034890b79a097d95","6a230fc25d128c9d1b56061a","6a26cf73b0c52c0c7d4d591b?","65a69840034890b79a097d95","6a230fc25d128c9d1b56061a","6a26cf73b0c52c0c7d4d591b?","30","[10,8,21,2,24,15,7,26,20,4,29,28,1,25,30,19,11,27,5,3,23,17,6,22,12,14,9,16,13,18]","[""U10"",""U8"",""P21"",""P2"",""P24"",""U15"",""U7"",""U26"",""U20"",""U4"",""P29"",""P28"",""P1"",""U25"",""P30"",""P19"",""P11"",""P27"",""U5"",""U3"",""P23"",""U17"",""P6"",""P22"",""P12"",""U14"",""U9"",""U16"",""U13"",""P18""]","[""P10"",""P8"",""U21"",""U2"",""U24"",""P15"",""P7"",""P26"",""P20"",""P4"",""U29"",""U28"",""U1"",""P25"",""U30"",""U19"",""U11"",""U27"",""P5"",""P3"",""U23"",""P17"",""U6"",""U22"",""U12"",""P14"",""P9"",""P16"",""P13"",""U18""]","5","5","0","0","0","0","","","","","","","","","","","","","","","","","","","","","","","","","","","","","","","","","","","",""
"","","","","","html-button-response","20","2.0.0","390373","78","1","2026-06-08 14:27:52","segmentation_norming_randomized_order_maxrun_attention_v4","90.240.109.194","Mozilla/5.0 (Macintosh; Intel Mac OS X 10_15_7) AppleWebKit/537.36 (KHTML, like Gecko) Chrome/148.0.0.0 Safari/537.36","Macintosh","Chrome","148.0.0.0","OS X","10_15_7","https://uencdihehs.cognition.run/?PROLIFIC_PID=65a69840034890b79a097d95&STUDY_ID=6a230fc25d128c9d1b56061a&STUDY_ID=6a230fc25d128c9d1b56061a&SESSION_ID=6a26cf73b0c52c0c7d4d591b?PROLIFIC_PID=65a69840034890b79a097d95&SESSION_ID=6a26cf73b0c52c0c7d4d591b?","en-GB,en;q=0.9","65a69840034890b79a097d95","6a230fc25d128c9d1b56061a","6a26cf73b0c52c0c7d4d591b?","65a69840034890b79a097d95","6a230fc25d128c9d1b56061a","6a26cf73b0c52c0c7d4d591b?","30","[10,8,21,2,24,15,7,26,20,4,29,28,1,25,30,19,11,27,5,3,23,17,6,22,12,14,9,16,13,18]","[""U10"",""U8"",""P21"",""P2"",""P24"",""U15"",""U7"",""U26"",""U20"",""U4"",""P29"",""P28"",""P1"",""U25"",""P30"",""P19"",""P11"",""P27"",""U5"",""U3"",""P23"",""U17"",""P6"",""P22"",""P12"",""U14"",""U9"",""U16"",""U13"",""P18""]","[""P10"",""P8"",""U21"",""U2"",""U24"",""P15"",""P7"",""P26"",""P20"",""P4"",""U29"",""U28"",""U1"",""P25"",""U30"",""U19"",""U11"",""U27"",""P5"",""P3"",""U23"",""P17"",""U6"",""U22"",""U12"",""P14"",""P9"",""P16"",""P13"",""U18""]","5","5","0","0","0","0","","35120","You have completed all demo trials.<br><br>Now the main experiment starts.<br>For each clip, while watching, remember to press the SPACE BAR whenever one <strong>smallest meaningful unit</strong> of activity ends and another begins.<br><br>","0","demo_feedback","","","","","","","","","","","","","","","","","","","","","","","","","","","","","","",""
"true","false","[]","[]","[]","preload","21","2.0.0","409105","78","1","2026-06-08 14:27:52","segmentation_norming_randomized_order_maxrun_attention_v4","90.240.109.194","Mozilla/5.0 (Macintosh; Intel Mac OS X 10_15_7) AppleWebKit/537.36 (KHTML, like Gecko) Chrome/148.0.0.0 Safari/537.36","Macintosh","Chrome","148.0.0.0","OS X","10_15_7","https://uencdihehs.cognition.run/?PROLIFIC_PID=65a69840034890b79a097d95&STUDY_ID=6a230fc25d128c9d1b56061a&STUDY_ID=6a230fc25d128c9d1b56061a&SESSION_ID=6a26cf73b0c52c0c7d4d591b?PROLIFIC_PID=65a69840034890b79a097d95&SESSION_ID=6a26cf73b0c52c0c7d4d591b?","en-GB,en;q=0.9","65a69840034890b79a097d95","6a230fc25d128c9d1b56061a","6a26cf73b0c52c0c7d4d591b?","65a69840034890b79a097d95","6a230fc25d128c9d1b56061a","6a26cf73b0c52c0c7d4d591b?","30","[10,8,21,2,24,15,7,26,20,4,29,28,1,25,30,19,11,27,5,3,23,17,6,22,12,14,9,16,13,18]","[""U10"",""U8"",""P21"",""P2"",""P24"",""U15"",""U7"",""U26"",""U20"",""U4"",""P29"",""P28"",""P1"",""U25"",""P30"",""P19"",""P11"",""P27"",""U5"",""U3"",""P23"",""U17"",""P6"",""P22"",""P12"",""U14"",""U9"",""U16"",""U13"",""P18""]","[""P10"",""P8"",""U21"",""U2"",""U24"",""P15"",""P7"",""P26"",""P20"",""P4"",""U29"",""U28"",""U1"",""P25"",""U30"",""U19"",""U11"",""U27"",""P5"",""P3"",""U23"",""P17"",""U6"",""U22"",""U12"",""P14"",""P9"",""P16"",""P13"",""U18""]","5","5","0","0","0","0","","","","","","","","","","","","","","","","","","","","","","","","","","","","","","","","","","","",""
"","","","","","video-keyboard-response","22","2.0.0","439839","78","1","2026-06-08 14:27:52","segmentation_norming_randomized_order_maxrun_attention_v4","90.240.109.194","Mozilla/5.0 (Macintosh; Intel Mac OS X 10_15_7) AppleWebKit/537.36 (KHTML, like Gecko) Chrome/148.0.0.0 Safari/537.36","Macintosh","Chrome","148.0.0.0","OS X","10_15_7","https://uencdihehs.cognition.run/?PROLIFIC_PID=65a69840034890b79a097d95&STUDY_ID=6a230fc25d128c9d1b56061a&STUDY_ID=6a230fc25d128c9d1b56061a&SESSION_ID=6a26cf73b0c52c0c7d4d591b?PROLIFIC_PID=65a69840034890b79a097d95&SESSION_ID=6a26cf73b0c52c0c7d4d591b?","en-GB,en;q=0.9","65a69840034890b79a097d95","6a230fc25d128c9d1b56061a","6a26cf73b0c52c0c7d4d591b?","65a69840034890b79a097d95","6a230fc25d128c9d1b56061a","6a26cf73b0c52c0c7d4d591b?","30","[10,8,21,2,24,15,7,26,20,4,29,28,1,25,30,19,11,27,5,3,23,17,6,22,12,14,9,16,13,18]","[""U10"",""U8"",""P21"",""P2"",""P24"",""U15"",""U7"",""U26"",""U20"",""U4"",""P29"",""P28"",""P1"",""U25"",""P30"",""P19"",""P11"",""P27"",""U5"",""U3"",""P23"",""U17"",""P6"",""P22"",""P12"",""U14"",""U9"",""U16"",""U13"",""P18""]","[""P10"",""P8"",""U21"",""U2"",""U24"",""P15"",""P7"",""P26"",""P20"",""P4"",""U29"",""U28"",""U1"",""P25"",""U30"",""U19"",""U11"",""U27"",""P5"",""P3"",""U23"",""P17"",""U6"",""U22"",""U12"",""P14"",""P9"",""P16"",""P13"",""U18""]","5","5","0","0","0","0","","null","[""cleaning_v2.mp4""]","null","segmentation_video","","","","","","","","","cleaning_v2.mp4","cleaning","Unpredictable","[0.479494,3.592784,4.066891,6.700956,8.385308,10.829679,12.469525,18.90758,19.86465,20.618627,21.778941,22.41156,23.679556,28.99563]","14","","U10","10","1","1","0.47410700000000006","false","false","false","","false","0","0","false","false","false","false",""
"","","","","","survey-multi-choice","25","2.0.0","444761","78","1","2026-06-08 14:27:52","segmentation_norming_randomized_order_maxrun_attention_v4","90.240.109.194","Mozilla/5.0 (Macintosh; Intel Mac OS X 10_15_7) AppleWebKit/537.36 (KHTML, like Gecko) Chrome/148.0.0.0 Safari/537.36","Macintosh","Chrome","148.0.0.0","OS X","10_15_7","https://uencdihehs.cognition.run/?PROLIFIC_PID=65a69840034890b79a097d95&STUDY_ID=6a230fc25d128c9d1b56061a&STUDY_ID=6a230fc25d128c9d1b56061a&SESSION_ID=6a26cf73b0c52c0c7d4d591b?PROLIFIC_PID=65a69840034890b79a097d95&SESSION_ID=6a26cf73b0c52c0c7d4d591b?","en-GB,en;q=0.9","65a69840034890b79a097d95","6a230fc25d128c9d1b56061a","6a26cf73b0c52c0c7d4d591b?","65a69840034890b79a097d95","6a230fc25d128c9d1b56061a","6a26cf73b0c52c0c7d4d591b?","30","[10,8,21,2,24,15,7,26,20,4,29,28,1,25,30,19,11,27,5,3,23,17,6,22,12,14,9,16,13,18]","[""U10"",""U8"",""P21"",""P2"",""P24"",""U15"",""U7"",""U26"",""U20"",""U4"",""P29"",""P28"",""P1"",""U25"",""P30"",""P19"",""P11"",""P27"",""U5"",""U3"",""P23"",""U17"",""P6"",""P22"",""P12"",""U14"",""U9"",""U16"",""U13"",""P18""]","[""P10"",""P8"",""U21"",""U2"",""U24"",""P15"",""P7"",""P26"",""P20"",""P4"",""U29"",""U28"",""U1"",""P25"",""U30"",""U19"",""U11"",""U27"",""P5"",""P3"",""U23"",""P17"",""U6"",""U22"",""U12"",""P14"",""P9"",""P16"",""P13"",""U18""]","5","5","0","0","0","0","","4920","","{""confidence_rating"":""Very confident""}","confidence_question","[0]","","","","","","","","","cleaning","Unpredictable","","","","U10","10","1","1","","","","","","","","","","","","","Very confident"
"","","","","","video-keyboard-response","26","2.0.0","484329","78","1","2026-06-08 14:27:52","segmentation_norming_randomized_order_maxrun_attention_v4","90.240.109.194","Mozilla/5.0 (Macintosh; Intel Mac OS X 10_15_7) AppleWebKit/537.36 (KHTML, like Gecko) Chrome/148.0.0.0 Safari/537.36","Macintosh","Chrome","148.0.0.0","OS X","10_15_7","https://uencdihehs.cognition.run/?PROLIFIC_PID=65a69840034890b79a097d95&STUDY_ID=6a230fc25d128c9d1b56061a&STUDY_ID=6a230fc25d128c9d1b56061a&SESSION_ID=6a26cf73b0c52c0c7d4d591b?PROLIFIC_PID=65a69840034890b79a097d95&SESSION_ID=6a26cf73b0c52c0c7d4d591b?","en-GB,en;q=0.9","65a69840034890b79a097d95","6a230fc25d128c9d1b56061a","6a26cf73b0c52c0c7d4d591b?","65a69840034890b79a097d95","6a230fc25d128c9d1b56061a","6a26cf73b0c52c0c7d4d591b?","30","[10,8,21,2,24,15,7,26,20,4,29,28,1,25,30,19,11,27,5,3,23,17,6,22,12,14,9,16,13,18]","[""U10"",""U8"",""P21"",""P2"",""P24"",""U15"",""U7"",""U26"",""U20"",""U4"",""P29"",""P28"",""P1"",""U25"",""P30"",""P19"",""P11"",""P27"",""U5"",""U3"",""P23"",""U17"",""P6"",""P22"",""P12"",""U14"",""U9"",""U16"",""U13"",""P18""]","[""P10"",""P8"",""U21"",""U2"",""U24"",""P15"",""P7"",""P26"",""P20"",""P4"",""U29"",""U28"",""U1"",""P25"",""U30"",""U19"",""U11"",""U27"",""P5"",""P3"",""U23"",""P17"",""U6"",""U22"",""U12"",""P14"",""P9"",""P16"",""P13"",""U18""]","5","5","0","0","0","0","","null","[""car_v2.mp4""]","null","segmentation_video","","","","","","","","","car_v2.mp4","car","Unpredictable","[0.932078,2.197009,3.130009,5.382139,6.92843,12.870682,16.4697,20.639417,24.553448,29.910185,32.184175,36.976233]","12","","U8","8","1","2","0.9329999999999998","false","false","false","","false","0","0","false","false","false","false",""
"","","","","","survey-multi-choice","29","2.0.0","487016","78","1","2026-06-08 14:27:52","segmentation_norming_randomized_order_maxrun_attention_v4","90.240.109.194","Mozilla/5.0 (Macintosh; Intel Mac OS X 10_15_7) AppleWebKit/537.36 (KHTML, like Gecko) Chrome/148.0.0.0 Safari/537.36","Macintosh","Chrome","148.0.0.0","OS X","10_15_7","https://uencdihehs.cognition.run/?PROLIFIC_PID=65a69840034890b79a097d95&STUDY_ID=6a230fc25d128c9d1b56061a&STUDY_ID=6a230fc25d128c9d1b56061a&SESSION_ID=6a26cf73b0c52c0c7d4d591b?PROLIFIC_PID=65a69840034890b79a097d95&SESSION_ID=6a26cf73b0c52c0c7d4d591b?","en-GB,en;q=0.9","65a69840034890b79a097d95","6a230fc25d128c9d1b56061a","6a26cf73b0c52c0c7d4d591b?","65a69840034890b79a097d95","6a230fc25d128c9d1b56061a","6a26cf73b0c52c0c7d4d591b?","30","[10,8,21,2,24,15,7,26,20,4,29,28,1,25,30,19,11,27,5,3,23,17,6,22,12,14,9,16,13,18]","[""U10"",""U8"",""P21"",""P2"",""P24"",""U15"",""U7"",""U26"",""U20"",""U4"",""P29"",""P28"",""P1"",""U25"",""P30"",""P19"",""P11"",""P27"",""U5"",""U3"",""P23"",""U17"",""P6"",""P22"",""P12"",""U14"",""U9"",""U16"",""U13"",""P18""]","[""P10"",""P8"",""U21"",""U2"",""U24"",""P15"",""P7"",""P26"",""P20"",""P4"",""U29"",""U28"",""U1"",""P25"",""U30"",""U19"",""U11"",""U27"",""P5"",""P3"",""U23"",""P17"",""U6"",""U22"",""U12"",""P14"",""P9"",""P16"",""P13"",""U18""]","5","5","0","0","0","0","","2686","","{""confidence_rating"":""Very confident""}","confidence_question","[0]","","","","","","","","","car","Unpredictable","","","","U8","8","1","2","","","","","","","","","","","","","Very confident"
"","","","","","video-keyboard-response","30","2.0.0","531187","78","1","2026-06-08 14:27:52","segmentation_norming_randomized_order_maxrun_attention_v4","90.240.109.194","Mozilla/5.0 (Macintosh; Intel Mac OS X 10_15_7) AppleWebKit/537.36 (KHTML, like Gecko) Chrome/148.0.0.0 Safari/537.36","Macintosh","Chrome","148.0.0.0","OS X","10_15_7","https://uencdihehs.cognition.run/?PROLIFIC_PID=65a69840034890b79a097d95&STUDY_ID=6a230fc25d128c9d1b56061a&STUDY_ID=6a230fc25d128c9d1b56061a&SESSION_ID=6a26cf73b0c52c0c7d4d591b?PROLIFIC_PID=65a69840034890b79a097d95&SESSION_ID=6a26cf73b0c52c0c7d4d591b?","en-GB,en;q=0.9","65a69840034890b79a097d95","6a230fc25d128c9d1b56061a","6a26cf73b0c52c0c7d4d591b?","65a69840034890b79a097d95","6a230fc25d128c9d1b56061a","6a26cf73b0c52c0c7d4d591b?","30","[10,8,21,2,24,15,7,26,20,4,29,28,1,25,30,19,11,27,5,3,23,17,6,22,12,14,9,16,13,18]","[""U10"",""U8"",""P21"",""P2"",""P24"",""U15"",""U7"",""U26"",""U20"",""U4"",""P29"",""P28"",""P1"",""U25"",""P30"",""P19"",""P11"",""P27"",""U5"",""U3"",""P23"",""U17"",""P6"",""P22"",""P12"",""U14"",""U9"",""U16"",""U13"",""P18""]","[""P10"",""P8"",""U21"",""U2"",""U24"",""P15"",""P7"",""P26"",""P20"",""P4"",""U29"",""U28"",""U1"",""P25"",""U30"",""U19"",""U11"",""U27"",""P5"",""P3"",""U23"",""P17"",""U6"",""U22"",""U12"",""P14"",""P9"",""P16"",""P13"",""U18""]","5","5","0","0","0","0","","null","[""printer_v1.mp4""]","null","segmentation_video","","","","","","","","","printer_v1.mp4","printer","Predictable","[2.745066,5.451905,7.915977,12.838985,13.373694,23.461185,23.863194,27.861227,28.822371,32.004314,38.483618,41.887587]","12","","P21","21","1","3","0.4020089999999996","false","false","false","","false","0","0","false","false","false","false",""
"","","","","","survey-multi-choice","33","2.0.0","533438","78","1","2026-06-08 14:27:52","segmentation_norming_randomized_order_maxrun_attention_v4","90.240.109.194","Mozilla/5.0 (Macintosh; Intel Mac OS X 10_15_7) AppleWebKit/537.36 (KHTML, like Gecko) Chrome/148.0.0.0 Safari/537.36","Macintosh","Chrome","148.0.0.0","OS X","10_15_7","https://uencdihehs.cognition.run/?PROLIFIC_PID=65a69840034890b79a097d95&STUDY_ID=6a230fc25d128c9d1b56061a&STUDY_ID=6a230fc25d128c9d1b56061a&SESSION_ID=6a26cf73b0c52c0c7d4d591b?PROLIFIC_PID=65a69840034890b79a097d95&SESSION_ID=6a26cf73b0c52c0c7d4d591b?","en-GB,en;q=0.9","65a69840034890b79a097d95","6a230fc25d128c9d1b56061a","6a26cf73b0c52c0c7d4d591b?","65a69840034890b79a097d95","6a230fc25d128c9d1b56061a","6a26cf73b0c52c0c7d4d591b?","30","[10,8,21,2,24,15,7,26,20,4,29,28,1,25,30,19,11,27,5,3,23,17,6,22,12,14,9,16,13,18]","[""U10"",""U8"",""P21"",""P2"",""P24"",""U15"",""U7"",""U26"",""U20"",""U4"",""P29"",""P28"",""P1"",""U25"",""P30"",""P19"",""P11"",""P27"",""U5"",""U3"",""P23"",""U17"",""P6"",""P22"",""P12"",""U14"",""U9"",""U16"",""U13"",""P18""]","[""P10"",""P8"",""U21"",""U2"",""U24"",""P15"",""P7"",""P26"",""P20"",""P4"",""U29"",""U28"",""U1"",""P25"",""U30"",""U19"",""U11"",""U27"",""P5"",""P3"",""U23"",""P17"",""U6"",""U22"",""U12"",""P14"",""P9"",""P16"",""P13"",""U18""]","5","5","0","0","0","0","","2250","","{""confidence_rating"":""Neutral""}","confidence_question","[0]","","","","","","","","","printer","Predictable","","","","P21","21","1","3","","","","","","","","","","","","","Neutral"
"","","","","","video-keyboard-response","34","2.0.0","561304","78","1","2026-06-08 14:27:52","segmentation_norming_randomized_order_maxrun_attention_v4","90.240.109.194","Mozilla/5.0 (Macintosh; Intel Mac OS X 10_15_7) AppleWebKit/537.36 (KHTML, like Gecko) Chrome/148.0.0.0 Safari/537.36","Macintosh","Chrome","148.0.0.0","OS X","10_15_7","https://uencdihehs.cognition.run/?PROLIFIC_PID=65a69840034890b79a097d95&STUDY_ID=6a230fc25d128c9d1b56061a&STUDY_ID=6a230fc25d128c9d1b56061a&SESSION_ID=6a26cf73b0c52c0c7d4d591b?PROLIFIC_PID=65a69840034890b79a097d95&SESSION_ID=6a26cf73b0c52c0c7d4d591b?","en-GB,en;q=0.9","65a69840034890b79a097d95","6a230fc25d128c9d1b56061a","6a26cf73b0c52c0c7d4d591b?","65a69840034890b79a097d95","6a230fc25d128c9d1b56061a","6a26cf73b0c52c0c7d4d591b?","30","[10,8,21,2,24,15,7,26,20,4,29,28,1,25,30,19,11,27,5,3,23,17,6,22,12,14,9,16,13,18]","[""U10"",""U8"",""P21"",""P2"",""P24"",""U15"",""U7"",""U26"",""U20"",""U4"",""P29"",""P28"",""P1"",""U25"",""P30"",""P19"",""P11"",""P27"",""U5"",""U3"",""P23"",""U17"",""P6"",""P22"",""P12"",""U14"",""U9"",""U16"",""U13"",""P18""]","[""P10"",""P8"",""U21"",""U2"",""U24"",""P15"",""P7"",""P26"",""P20"",""P4"",""U29"",""U28"",""U1"",""P25"",""U30"",""U19"",""U11"",""U27"",""P5"",""P3"",""U23"",""P17"",""U6"",""U22"",""U12"",""P14"",""P9"",""P16"",""P13"",""U18""]","5","5","0","0","0","0","","null","[""balcony_v1.mp4""]","null","segmentation_video","","","","","","","","","balcony_v1.mp4","balcony","Predictable","[1.067157,1.887429,2.581559,6.39989,7.361878,8.119968,9.576362,12.06516,13.552386,17.898309,19.340213,21.947546,23.717633,27.473061]","14","","P2","2","1","4","0.6941299999999999","false","false","false","","false","0","0","false","false","false","false",""
"","","","","","survey-multi-choice","37","2.0.0","602318","78","1","2026-06-08 14:27:52","segmentation_norming_randomized_order_maxrun_attention_v4","90.240.109.194","Mozilla/5.0 (Macintosh; Intel Mac OS X 10_15_7) AppleWebKit/537.36 (KHTML, like Gecko) Chrome/148.0.0.0 Safari/537.36","Macintosh","Chrome","148.0.0.0","OS X","10_15_7","https://uencdihehs.cognition.run/?PROLIFIC_PID=65a69840034890b79a097d95&STUDY_ID=6a230fc25d128c9d1b56061a&STUDY_ID=6a230fc25d128c9d1b56061a&SESSION_ID=6a26cf73b0c52c0c7d4d591b?PROLIFIC_PID=65a69840034890b79a097d95&SESSION_ID=6a26cf73b0c52c0c7d4d591b?","en-GB,en;q=0.9","65a69840034890b79a097d95","6a230fc25d128c9d1b56061a","6a26cf73b0c52c0c7d4d591b?","65a69840034890b79a097d95","6a230fc25d128c9d1b56061a","6a26cf73b0c52c0c7d4d591b?","30","[10,8,21,2,24,15,7,26,20,4,29,28,1,25,30,19,11,27,5,3,23,17,6,22,12,14,9,16,13,18]","[""U10"",""U8"",""P21"",""P2"",""P24"",""U15"",""U7"",""U26"",""U20"",""U4"",""P29"",""P28"",""P1"",""U25"",""P30"",""P19"",""P11"",""P27"",""U5"",""U3"",""P23"",""U17"",""P6"",""P22"",""P12"",""U14"",""U9"",""U16"",""U13"",""P18""]","[""P10"",""P8"",""U21"",""U2"",""U24"",""P15"",""P7"",""P26"",""P20"",""P4"",""U29"",""U28"",""U1"",""P25"",""U30"",""U19"",""U11"",""U27"",""P5"",""P3"",""U23"",""P17"",""U6"",""U22"",""U12"",""P14"",""P9"",""P16"",""P13"",""U18""]","5","5","0","0","0","0","","41012","","{""confidence_rating"":""Moderately confident""}","confidence_question","[0]","","","","","","","","","balcony","Predictable","","","","P2","2","1","4","","","","","","","","","","","","","Moderately confident"
"","","","","","video-keyboard-response","38","2.0.0","626723","78","1","2026-06-08 14:27:52","segmentation_norming_randomized_order_maxrun_attention_v4","90.240.109.194","Mozilla/5.0 (Macintosh; Intel Mac OS X 10_15_7) AppleWebKit/537.36 (KHTML, like Gecko) Chrome/148.0.0.0 Safari/537.36","Macintosh","Chrome","148.0.0.0","OS X","10_15_7","https://uencdihehs.cognition.run/?PROLIFIC_PID=65a69840034890b79a097d95&STUDY_ID=6a230fc25d128c9d1b56061a&STUDY_ID=6a230fc25d128c9d1b56061a&SESSION_ID=6a26cf73b0c52c0c7d4d591b?PROLIFIC_PID=65a69840034890b79a097d95&SESSION_ID=6a26cf73b0c52c0c7d4d591b?","en-GB,en;q=0.9","65a69840034890b79a097d95","6a230fc25d128c9d1b56061a","6a26cf73b0c52c0c7d4d591b?","65a69840034890b79a097d95","6a230fc25d128c9d1b56061a","6a26cf73b0c52c0c7d4d591b?","30","[10,8,21,2,24,15,7,26,20,4,29,28,1,25,30,19,11,27,5,3,23,17,6,22,12,14,9,16,13,18]","[""U10"",""U8"",""P21"",""P2"",""P24"",""U15"",""U7"",""U26"",""U20"",""U4"",""P29"",""P28"",""P1"",""U25"",""P30"",""P19"",""P11"",""P27"",""U5"",""U3"",""P23"",""U17"",""P6"",""P22"",""P12"",""U14"",""U9"",""U16"",""U13"",""P18""]","[""P10"",""P8"",""U21"",""U2"",""U24"",""P15"",""P7"",""P26"",""P20"",""P4"",""U29"",""U28"",""U1"",""P25"",""U30"",""U19"",""U11"",""U27"",""P5"",""P3"",""U23"",""P17"",""U6"",""U22"",""U12"",""P14"",""P9"",""P16"",""P13"",""U18""]","5","5","0","0","0","0","","null","[""skateboard_v1.mp4""]","null","segmentation_video","","","","","","","","","skateboard_v1.mp4","skateboard","Predictable","[1.21754,4.890522,10.157532,15.310351,21.498765,21.947673]","6","","P24","24","1","5","0.44890800000000297","false","false","false","","false","0","0","false","false","false","false",""
"","","","","","survey-multi-choice","41","2.0.0","630105","78","1","2026-06-08 14:27:52","segmentation_norming_randomized_order_maxrun_attention_v4","90.240.109.194","Mozilla/5.0 (Macintosh; Intel Mac OS X 10_15_7) AppleWebKit/537.36 (KHTML, like Gecko) Chrome/148.0.0.0 Safari/537.36","Macintosh","Chrome","148.0.0.0","OS X","10_15_7","https://uencdihehs.cognition.run/?PROLIFIC_PID=65a69840034890b79a097d95&STUDY_ID=6a230fc25d128c9d1b56061a&STUDY_ID=6a230fc25d128c9d1b56061a&SESSION_ID=6a26cf73b0c52c0c7d4d591b?PROLIFIC_PID=65a69840034890b79a097d95&SESSION_ID=6a26cf73b0c52c0c7d4d591b?","en-GB,en;q=0.9","65a69840034890b79a097d95","6a230fc25d128c9d1b56061a","6a26cf73b0c52c0c7d4d591b?","65a69840034890b79a097d95","6a230fc25d128c9d1b56061a","6a26cf73b0c52c0c7d4d591b?","30","[10,8,21,2,24,15,7,26,20,4,29,28,1,25,30,19,11,27,5,3,23,17,6,22,12,14,9,16,13,18]","[""U10"",""U8"",""P21"",""P2"",""P24"",""U15"",""U7"",""U26"",""U20"",""U4"",""P29"",""P28"",""P1"",""U25"",""P30"",""P19"",""P11"",""P27"",""U5"",""U3"",""P23"",""U17"",""P6"",""P22"",""P12"",""U14"",""U9"",""U16"",""U13"",""P18""]","[""P10"",""P8"",""U21"",""U2"",""U24"",""P15"",""P7"",""P26"",""P20"",""P4"",""U29"",""U28"",""U1"",""P25"",""U30"",""U19"",""U11"",""U27"",""P5"",""P3"",""U23"",""P17"",""U6"",""U22"",""U12"",""P14"",""P9"",""P16"",""P13"",""U18""]","5","5","0","0","0","0","","3380","","{""confidence_rating"":""Slightly unconfident""}","confidence_question","[0]","","","","","","","","","skateboard","Predictable","","","","P24","24","1","5","","","","","","","","","","","","","Slightly unconfident"
"","","","","","video-keyboard-response","42","2.0.0","661065","78","1","2026-06-08 14:27:52","segmentation_norming_randomized_order_maxrun_attention_v4","90.240.109.194","Mozilla/5.0 (Macintosh; Intel Mac OS X 10_15_7) AppleWebKit/537.36 (KHTML, like Gecko) Chrome/148.0.0.0 Safari/537.36","Macintosh","Chrome","148.0.0.0","OS X","10_15_7","https://uencdihehs.cognition.run/?PROLIFIC_PID=65a69840034890b79a097d95&STUDY_ID=6a230fc25d128c9d1b56061a&STUDY_ID=6a230fc25d128c9d1b56061a&SESSION_ID=6a26cf73b0c52c0c7d4d591b?PROLIFIC_PID=65a69840034890b79a097d95&SESSION_ID=6a26cf73b0c52c0c7d4d591b?","en-GB,en;q=0.9","65a69840034890b79a097d95","6a230fc25d128c9d1b56061a","6a26cf73b0c52c0c7d4d591b?","65a69840034890b79a097d95","6a230fc25d128c9d1b56061a","6a26cf73b0c52c0c7d4d591b?","30","[10,8,21,2,24,15,7,26,20,4,29,28,1,25,30,19,11,27,5,3,23,17,6,22,12,14,9,16,13,18]","[""U10"",""U8"",""P21"",""P2"",""P24"",""U15"",""U7"",""U26"",""U20"",""U4"",""P29"",""P28"",""P1"",""U25"",""P30"",""P19"",""P11"",""P27"",""U5"",""U3"",""P23"",""U17"",""P6"",""P22"",""P12"",""U14"",""U9"",""U16"",""U13"",""P18""]","[""P10"",""P8"",""U21"",""U2"",""U24"",""P15"",""P7"",""P26"",""P20"",""P4"",""U29"",""U28"",""U1"",""P25"",""U30"",""U19"",""U11"",""U27"",""P5"",""P3"",""U23"",""P17"",""U6"",""U22"",""U12"",""P14"",""P9"",""P16"",""P13"",""U18""]","5","5","0","0","0","0","","null","[""laundry_v2.mp4""]","null","segmentation_video","","","","","","","","","laundry_v2.mp4","laundry","Unpredictable","[1.730069,3.135159,3.913006,10.412918,15.404951,24.089853,26.497931,29.375396]","8","","U15","15","1","6","0.7778470000000004","false","false","false","","false","0","0","false","false","false","false",""
"","","","","","survey-multi-choice","45","2.0.0","663616","78","1","2026-06-08 14:27:52","segmentation_norming_randomized_order_maxrun_attention_v4","90.240.109.194","Mozilla/5.0 (Macintosh; Intel Mac OS X 10_15_7) AppleWebKit/537.36 (KHTML, like Gecko) Chrome/148.0.0.0 Safari/537.36","Macintosh","Chrome","148.0.0.0","OS X","10_15_7","https://uencdihehs.cognition.run/?PROLIFIC_PID=65a69840034890b79a097d95&STUDY_ID=6a230fc25d128c9d1b56061a&STUDY_ID=6a230fc25d128c9d1b56061a&SESSION_ID=6a26cf73b0c52c0c7d4d591b?PROLIFIC_PID=65a69840034890b79a097d95&SESSION_ID=6a26cf73b0c52c0c7d4d591b?","en-GB,en;q=0.9","65a69840034890b79a097d95","6a230fc25d128c9d1b56061a","6a26cf73b0c52c0c7d4d591b?","65a69840034890b79a097d95","6a230fc25d128c9d1b56061a","6a26cf73b0c52c0c7d4d591b?","30","[10,8,21,2,24,15,7,26,20,4,29,28,1,25,30,19,11,27,5,3,23,17,6,22,12,14,9,16,13,18]","[""U10"",""U8"",""P21"",""P2"",""P24"",""U15"",""U7"",""U26"",""U20"",""U4"",""P29"",""P28"",""P1"",""U25"",""P30"",""P19"",""P11"",""P27"",""U5"",""U3"",""P23"",""U17"",""P6"",""P22"",""P12"",""U14"",""U9"",""U16"",""U13"",""P18""]","[""P10"",""P8"",""U21"",""U2"",""U24"",""P15"",""P7"",""P26"",""P20"",""P4"",""U29"",""U28"",""U1"",""P25"",""U30"",""U19"",""U11"",""U27"",""P5"",""P3"",""U23"",""P17"",""U6"",""U22"",""U12"",""P14"",""P9"",""P16"",""P13"",""U18""]","5","5","0","0","0","0","","2549","","{""confidence_rating"":""Neutral""}","confidence_question","[0]","","","","","","","","","laundry","Unpredictable","","","","U15","15","1","6","","","","","","","","","","","","","Neutral"
"","","","","","video-keyboard-response","46","2.0.0","693034","78","1","2026-06-08 14:27:52","segmentation_norming_randomized_order_maxrun_attention_v4","90.240.109.194","Mozilla/5.0 (Macintosh; Intel Mac OS X 10_15_7) AppleWebKit/537.36 (KHTML, like Gecko) Chrome/148.0.0.0 Safari/537.36","Macintosh","Chrome","148.0.0.0","OS X","10_15_7","https://uencdihehs.cognition.run/?PROLIFIC_PID=65a69840034890b79a097d95&STUDY_ID=6a230fc25d128c9d1b56061a&STUDY_ID=6a230fc25d128c9d1b56061a&SESSION_ID=6a26cf73b0c52c0c7d4d591b?PROLIFIC_PID=65a69840034890b79a097d95&SESSION_ID=6a26cf73b0c52c0c7d4d591b?","en-GB,en;q=0.9","65a69840034890b79a097d95","6a230fc25d128c9d1b56061a","6a26cf73b0c52c0c7d4d591b?","65a69840034890b79a097d95","6a230fc25d128c9d1b56061a","6a26cf73b0c52c0c7d4d591b?","30","[10,8,21,2,24,15,7,26,20,4,29,28,1,25,30,19,11,27,5,3,23,17,6,22,12,14,9,16,13,18]","[""U10"",""U8"",""P21"",""P2"",""P24"",""U15"",""U7"",""U26"",""U20"",""U4"",""P29"",""P28"",""P1"",""U25"",""P30"",""P19"",""P11"",""P27"",""U5"",""U3"",""P23"",""U17"",""P6"",""P22"",""P12"",""U14"",""U9"",""U16"",""U13"",""P18""]","[""P10"",""P8"",""U21"",""U2"",""U24"",""P15"",""P7"",""P26"",""P20"",""P4"",""U29"",""U28"",""U1"",""P25"",""U30"",""U19"",""U11"",""U27"",""P5"",""P3"",""U23"",""P17"",""U6"",""U22"",""U12"",""P14"",""P9"",""P16"",""P13"",""U18""]","5","5","0","0","0","0","","null","[""bike_v2.mp4""]","null","segmentation_video","","","","","","","","","bike_v2.mp4","bike","Unpredictable","[2.960499,8.31503,12.210327,16.08084,19.424763,23.648356,24.210539]","7","","U7","7","1","7","0.562183000000001","false","false","false","","false","0","0","false","false","false","false",""
"","","","","","survey-multi-choice","49","2.0.0","698927","78","1","2026-06-08 14:27:52","segmentation_norming_randomized_order_maxrun_attention_v4","90.240.109.194","Mozilla/5.0 (Macintosh; Intel Mac OS X 10_15_7) AppleWebKit/537.36 (KHTML, like Gecko) Chrome/148.0.0.0 Safari/537.36","Macintosh","Chrome","148.0.0.0","OS X","10_15_7","https://uencdihehs.cognition.run/?PROLIFIC_PID=65a69840034890b79a097d95&STUDY_ID=6a230fc25d128c9d1b56061a&STUDY_ID=6a230fc25d128c9d1b56061a&SESSION_ID=6a26cf73b0c52c0c7d4d591b?PROLIFIC_PID=65a69840034890b79a097d95&SESSION_ID=6a26cf73b0c52c0c7d4d591b?","en-GB,en;q=0.9","65a69840034890b79a097d95","6a230fc25d128c9d1b56061a","6a26cf73b0c52c0c7d4d591b?","65a69840034890b79a097d95","6a230fc25d128c9d1b56061a","6a26cf73b0c52c0c7d4d591b?","30","[10,8,21,2,24,15,7,26,20,4,29,28,1,25,30,19,11,27,5,3,23,17,6,22,12,14,9,16,13,18]","[""U10"",""U8"",""P21"",""P2"",""P24"",""U15"",""U7"",""U26"",""U20"",""U4"",""P29"",""P28"",""P1"",""U25"",""P30"",""P19"",""P11"",""P27"",""U5"",""U3"",""P23"",""U17"",""P6"",""P22"",""P12"",""U14"",""U9"",""U16"",""U13"",""P18""]","[""P10"",""P8"",""U21"",""U2"",""U24"",""P15"",""P7"",""P26"",""P20"",""P4"",""U29"",""U28"",""U1"",""P25"",""U30"",""U19"",""U11"",""U27"",""P5"",""P3"",""U23"",""P17"",""U6"",""U22"",""U12"",""P14"",""P9"",""P16"",""P13"",""U18""]","5","5","0","0","0","0","","5895","","{""confidence_rating"":""Neutral""}","confidence_question","[0]","","","","","","","","","bike","Unpredictable","","","","U7","7","1","7","","","","","","","","","","","","","Neutral"
"","","","","","video-keyboard-response","50","2.0.0","739162","78","1","2026-06-08 14:27:52","segmentation_norming_randomized_order_maxrun_attention_v4","90.240.109.194","Mozilla/5.0 (Macintosh; Intel Mac OS X 10_15_7) AppleWebKit/537.36 (KHTML, like Gecko) Chrome/148.0.0.0 Safari/537.36","Macintosh","Chrome","148.0.0.0","OS X","10_15_7","https://uencdihehs.cognition.run/?PROLIFIC_PID=65a69840034890b79a097d95&STUDY_ID=6a230fc25d128c9d1b56061a&STUDY_ID=6a230fc25d128c9d1b56061a&SESSION_ID=6a26cf73b0c52c0c7d4d591b?PROLIFIC_PID=65a69840034890b79a097d95&SESSION_ID=6a26cf73b0c52c0c7d4d591b?","en-GB,en;q=0.9","65a69840034890b79a097d95","6a230fc25d128c9d1b56061a","6a26cf73b0c52c0c7d4d591b?","65a69840034890b79a097d95","6a230fc25d128c9d1b56061a","6a26cf73b0c52c0c7d4d591b?","30","[10,8,21,2,24,15,7,26,20,4,29,28,1,25,30,19,11,27,5,3,23,17,6,22,12,14,9,16,13,18]","[""U10"",""U8"",""P21"",""P2"",""P24"",""U15"",""U7"",""U26"",""U20"",""U4"",""P29"",""P28"",""P1"",""U25"",""P30"",""P19"",""P11"",""P27"",""U5"",""U3"",""P23"",""U17"",""P6"",""P22"",""P12"",""U14"",""U9"",""U16"",""U13"",""P18""]","[""P10"",""P8"",""U21"",""U2"",""U24"",""P15"",""P7"",""P26"",""P20"",""P4"",""U29"",""U28"",""U1"",""P25"",""U30"",""U19"",""U11"",""U27"",""P5"",""P3"",""U23"",""P17"",""U6"",""U22"",""U12"",""P14"",""P9"",""P16"",""P13"",""U18""]","5","5","0","0","0","0","","null","[""sunbathing_v2.mp4""]","null","segmentation_video","","","","","","","","","sunbathing_v2.mp4","sunbathing","Unpredictable","[3.646025,5.801609,8.006002,10.504849,13.145958,28.449553]","6","","U26","26","1","8","2.155584","false","false","false","","false","0","0","false","false","false","false",""
"","","","","","survey-multi-choice","53","2.0.0","741425","78","1","2026-06-08 14:27:52","segmentation_norming_randomized_order_maxrun_attention_v4","90.240.109.194","Mozilla/5.0 (Macintosh; Intel Mac OS X 10_15_7) AppleWebKit/537.36 (KHTML, like Gecko) Chrome/148.0.0.0 Safari/537.36","Macintosh","Chrome","148.0.0.0","OS X","10_15_7","https://uencdihehs.cognition.run/?PROLIFIC_PID=65a69840034890b79a097d95&STUDY_ID=6a230fc25d128c9d1b56061a&STUDY_ID=6a230fc25d128c9d1b56061a&SESSION_ID=6a26cf73b0c52c0c7d4d591b?PROLIFIC_PID=65a69840034890b79a097d95&SESSION_ID=6a26cf73b0c52c0c7d4d591b?","en-GB,en;q=0.9","65a69840034890b79a097d95","6a230fc25d128c9d1b56061a","6a26cf73b0c52c0c7d4d591b?","65a69840034890b79a097d95","6a230fc25d128c9d1b56061a","6a26cf73b0c52c0c7d4d591b?","30","[10,8,21,2,24,15,7,26,20,4,29,28,1,25,30,19,11,27,5,3,23,17,6,22,12,14,9,16,13,18]","[""U10"",""U8"",""P21"",""P2"",""P24"",""U15"",""U7"",""U26"",""U20"",""U4"",""P29"",""P28"",""P1"",""U25"",""P30"",""P19"",""P11"",""P27"",""U5"",""U3"",""P23"",""U17"",""P6"",""P22"",""P12"",""U14"",""U9"",""U16"",""U13"",""P18""]","[""P10"",""P8"",""U21"",""U2"",""U24"",""P15"",""P7"",""P26"",""P20"",""P4"",""U29"",""U28"",""U1"",""P25"",""U30"",""U19"",""U11"",""U27"",""P5"",""P3"",""U23"",""P17"",""U6"",""U22"",""U12"",""P14"",""P9"",""P16"",""P13"",""U18""]","5","5","0","0","0","0","","2262","","{""confidence_rating"":""Slightly unconfident""}","confidence_question","[0]","","","","","","","","","sunbathing","Unpredictable","","","","U26","26","1","8","","","","","","","","","","","","","Slightly unconfident"
"","","","","","video-keyboard-response","54","2.0.0","765028","78","1","2026-06-08 14:27:52","segmentation_norming_randomized_order_maxrun_attention_v4","90.240.109.194","Mozilla/5.0 (Macintosh; Intel Mac OS X 10_15_7) AppleWebKit/537.36 (KHTML, like Gecko) Chrome/148.0.0.0 Safari/537.36","Macintosh","Chrome","148.0.0.0","OS X","10_15_7","https://uencdihehs.cognition.run/?PROLIFIC_PID=65a69840034890b79a097d95&STUDY_ID=6a230fc25d128c9d1b56061a&STUDY_ID=6a230fc25d128c9d1b56061a&SESSION_ID=6a26cf73b0c52c0c7d4d591b?PROLIFIC_PID=65a69840034890b79a097d95&SESSION_ID=6a26cf73b0c52c0c7d4d591b?","en-GB,en;q=0.9","65a69840034890b79a097d95","6a230fc25d128c9d1b56061a","6a26cf73b0c52c0c7d4d591b?","65a69840034890b79a097d95","6a230fc25d128c9d1b56061a","6a26cf73b0c52c0c7d4d591b?","30","[10,8,21,2,24,15,7,26,20,4,29,28,1,25,30,19,11,27,5,3,23,17,6,22,12,14,9,16,13,18]","[""U10"",""U8"",""P21"",""P2"",""P24"",""U15"",""U7"",""U26"",""U20"",""U4"",""P29"",""P28"",""P1"",""U25"",""P30"",""P19"",""P11"",""P27"",""U5"",""U3"",""P23"",""U17"",""P6"",""P22"",""P12"",""U14"",""U9"",""U16"",""U13"",""P18""]","[""P10"",""P8"",""U21"",""U2"",""U24"",""P15"",""P7"",""P26"",""P20"",""P4"",""U29"",""U28"",""U1"",""P25"",""U30"",""U19"",""U11"",""U27"",""P5"",""P3"",""U23"",""P17"",""U6"",""U22"",""U12"",""P14"",""P9"",""P16"",""P13"",""U18""]","5","5","0","0","0","0","","null","[""poster_v2.mp4""]","null","segmentation_video","","","","","","","","","poster_v2.mp4","poster","Unpredictable","[1.062834,3.818495,5.052278,11.20512,11.804949,16.276644,22.449037,22.833757]","8","","U20","20","1","9","0.38471999999999795","false","false","false","","false","0","0","false","false","false","false",""
"","","","","","survey-multi-choice","57","2.0.0","788576","78","1","2026-06-08 14:27:52","segmentation_norming_randomized_order_maxrun_attention_v4","90.240.109.194","Mozilla/5.0 (Macintosh; Intel Mac OS X 10_15_7) AppleWebKit/537.36 (KHTML, like Gecko) Chrome/148.0.0.0 Safari/537.36","Macintosh","Chrome","148.0.0.0","OS X","10_15_7","https://uencdihehs.cognition.run/?PROLIFIC_PID=65a69840034890b79a097d95&STUDY_ID=6a230fc25d128c9d1b56061a&STUDY_ID=6a230fc25d128c9d1b56061a&SESSION_ID=6a26cf73b0c52c0c7d4d591b?PROLIFIC_PID=65a69840034890b79a097d95&SESSION_ID=6a26cf73b0c52c0c7d4d591b?","en-GB,en;q=0.9","65a69840034890b79a097d95","6a230fc25d128c9d1b56061a","6a26cf73b0c52c0c7d4d591b?","65a69840034890b79a097d95","6a230fc25d128c9d1b56061a","6a26cf73b0c52c0c7d4d591b?","30","[10,8,21,2,24,15,7,26,20,4,29,28,1,25,30,19,11,27,5,3,23,17,6,22,12,14,9,16,13,18]","[""U10"",""U8"",""P21"",""P2"",""P24"",""U15"",""U7"",""U26"",""U20"",""U4"",""P29"",""P28"",""P1"",""U25"",""P30"",""P19"",""P11"",""P27"",""U5"",""U3"",""P23"",""U17"",""P6"",""P22"",""P12"",""U14"",""U9"",""U16"",""U13"",""P18""]","[""P10"",""P8"",""U21"",""U2"",""U24"",""P15"",""P7"",""P26"",""P20"",""P4"",""U29"",""U28"",""U1"",""P25"",""U30"",""U19"",""U11"",""U27"",""P5"",""P3"",""U23"",""P17"",""U6"",""U22"",""U12"",""P14"",""P9"",""P16"",""P13"",""U18""]","5","5","0","0","0","0","","23546","","{""confidence_rating"":""Neutral""}","confidence_question","[0]","","","","","","","","","poster","Unpredictable","","","","U20","20","1","9","","","","","","","","","","","","","Neutral"
"","","","","","video-keyboard-response","58","2.0.0","823951","78","1","2026-06-08 14:27:52","segmentation_norming_randomized_order_maxrun_attention_v4","90.240.109.194","Mozilla/5.0 (Macintosh; Intel Mac OS X 10_15_7) AppleWebKit/537.36 (KHTML, like Gecko) Chrome/148.0.0.0 Safari/537.36","Macintosh","Chrome","148.0.0.0","OS X","10_15_7","https://uencdihehs.cognition.run/?PROLIFIC_PID=65a69840034890b79a097d95&STUDY_ID=6a230fc25d128c9d1b56061a&STUDY_ID=6a230fc25d128c9d1b56061a&SESSION_ID=6a26cf73b0c52c0c7d4d591b?PROLIFIC_PID=65a69840034890b79a097d95&SESSION_ID=6a26cf73b0c52c0c7d4d591b?","en-GB,en;q=0.9","65a69840034890b79a097d95","6a230fc25d128c9d1b56061a","6a26cf73b0c52c0c7d4d591b?","65a69840034890b79a097d95","6a230fc25d128c9d1b56061a","6a26cf73b0c52c0c7d4d591b?","30","[10,8,21,2,24,15,7,26,20,4,29,28,1,25,30,19,11,27,5,3,23,17,6,22,12,14,9,16,13,18]","[""U10"",""U8"",""P21"",""P2"",""P24"",""U15"",""U7"",""U26"",""U20"",""U4"",""P29"",""P28"",""P1"",""U25"",""P30"",""P19"",""P11"",""P27"",""U5"",""U3"",""P23"",""U17"",""P6"",""P22"",""P12"",""U14"",""U9"",""U16"",""U13"",""P18""]","[""P10"",""P8"",""U21"",""U2"",""U24"",""P15"",""P7"",""P26"",""P20"",""P4"",""U29"",""U28"",""U1"",""P25"",""U30"",""U19"",""U11"",""U27"",""P5"",""P3"",""U23"",""P17"",""U6"",""U22"",""U12"",""P14"",""P9"",""P16"",""P13"",""U18""]","5","5","0","0","0","0","","null","[""bathroom_v2.mp4""]","null","segmentation_video","","","","","","","","","bathroom_v2.mp4","bathroom","Unpredictable","[2.001849,3.838065,4.531717,5.995152,7.32184,8.733514,10.823514,14.760896,15.981299,17.559858,18.019102,22.154219,25.362337,26.011526,27.312642,27.750477,29.187117,33.055928]","18","","U4","4","1","10","0.43783499999999975","false","false","false","","false","0","0","false","false","false","false",""
"","","","","","survey-multi-choice","61","2.0.0","826035","78","1","2026-06-08 14:27:52","segmentation_norming_randomized_order_maxrun_attention_v4","90.240.109.194","Mozilla/5.0 (Macintosh; Intel Mac OS X 10_15_7) AppleWebKit/537.36 (KHTML, like Gecko) Chrome/148.0.0.0 Safari/537.36","Macintosh","Chrome","148.0.0.0","OS X","10_15_7","https://uencdihehs.cognition.run/?PROLIFIC_PID=65a69840034890b79a097d95&STUDY_ID=6a230fc25d128c9d1b56061a&STUDY_ID=6a230fc25d128c9d1b56061a&SESSION_ID=6a26cf73b0c52c0c7d4d591b?PROLIFIC_PID=65a69840034890b79a097d95&SESSION_ID=6a26cf73b0c52c0c7d4d591b?","en-GB,en;q=0.9","65a69840034890b79a097d95","6a230fc25d128c9d1b56061a","6a26cf73b0c52c0c7d4d591b?","65a69840034890b79a097d95","6a230fc25d128c9d1b56061a","6a26cf73b0c52c0c7d4d591b?","30","[10,8,21,2,24,15,7,26,20,4,29,28,1,25,30,19,11,27,5,3,23,17,6,22,12,14,9,16,13,18]","[""U10"",""U8"",""P21"",""P2"",""P24"",""U15"",""U7"",""U26"",""U20"",""U4"",""P29"",""P28"",""P1"",""U25"",""P30"",""P19"",""P11"",""P27"",""U5"",""U3"",""P23"",""U17"",""P6"",""P22"",""P12"",""U14"",""U9"",""U16"",""U13"",""P18""]","[""P10"",""P8"",""U21"",""U2"",""U24"",""P15"",""P7"",""P26"",""P20"",""P4"",""U29"",""U28"",""U1"",""P25"",""U30"",""U19"",""U11"",""U27"",""P5"",""P3"",""U23"",""P17"",""U6"",""U22"",""U12"",""P14"",""P9"",""P16"",""P13"",""U18""]","5","5","0","0","0","0","","2082","","{""confidence_rating"":""Moderately confident""}","confidence_question","[0]","","","","","","","","","bathroom","Unpredictable","","","","U4","4","1","10","","","","","","","","","","","","","Moderately confident"
"","","","","","video-keyboard-response","62","2.0.0","847682","78","1","2026-06-08 14:27:52","segmentation_norming_randomized_order_maxrun_attention_v4","90.240.109.194","Mozilla/5.0 (Macintosh; Intel Mac OS X 10_15_7) AppleWebKit/537.36 (KHTML, like Gecko) Chrome/148.0.0.0 Safari/537.36","Macintosh","Chrome","148.0.0.0","OS X","10_15_7","https://uencdihehs.cognition.run/?PROLIFIC_PID=65a69840034890b79a097d95&STUDY_ID=6a230fc25d128c9d1b56061a&STUDY_ID=6a230fc25d128c9d1b56061a&SESSION_ID=6a26cf73b0c52c0c7d4d591b?PROLIFIC_PID=65a69840034890b79a097d95&SESSION_ID=6a26cf73b0c52c0c7d4d591b?","en-GB,en;q=0.9","65a69840034890b79a097d95","6a230fc25d128c9d1b56061a","6a26cf73b0c52c0c7d4d591b?","65a69840034890b79a097d95","6a230fc25d128c9d1b56061a","6a26cf73b0c52c0c7d4d591b?","30","[10,8,21,2,24,15,7,26,20,4,29,28,1,25,30,19,11,27,5,3,23,17,6,22,12,14,9,16,13,18]","[""U10"",""U8"",""P21"",""P2"",""P24"",""U15"",""U7"",""U26"",""U20"",""U4"",""P29"",""P28"",""P1"",""U25"",""P30"",""P19"",""P11"",""P27"",""U5"",""U3"",""P23"",""U17"",""P6"",""P22"",""P12"",""U14"",""U9"",""U16"",""U13"",""P18""]","[""P10"",""P8"",""U21"",""U2"",""U24"",""P15"",""P7"",""P26"",""P20"",""P4"",""U29"",""U28"",""U1"",""P25"",""U30"",""U19"",""U11"",""U27"",""P5"",""P3"",""U23"",""P17"",""U6"",""U22"",""U12"",""P14"",""P9"",""P16"",""P13"",""U18""]","5","5","0","0","0","0","","null","[""walking_v1.mp4""]","null","segmentation_video","","","","","","","","","walking_v1.mp4","walking","Predictable","[0.695403,2.869572,3.612086,10.474574,13.288712,15.110652,15.670535,19.927235]","8","","P29","29","1","11","0.5598829999999992","false","false","false","","false","0","0","false","false","false","false",""
"","","","","","survey-multi-choice","65","2.0.0","849542","78","1","2026-06-08 14:27:52","segmentation_norming_randomized_order_maxrun_attention_v4","90.240.109.194","Mozilla/5.0 (Macintosh; Intel Mac OS X 10_15_7) AppleWebKit/537.36 (KHTML, like Gecko) Chrome/148.0.0.0 Safari/537.36","Macintosh","Chrome","148.0.0.0","OS X","10_15_7","https://uencdihehs.cognition.run/?PROLIFIC_PID=65a69840034890b79a097d95&STUDY_ID=6a230fc25d128c9d1b56061a&STUDY_ID=6a230fc25d128c9d1b56061a&SESSION_ID=6a26cf73b0c52c0c7d4d591b?PROLIFIC_PID=65a69840034890b79a097d95&SESSION_ID=6a26cf73b0c52c0c7d4d591b?","en-GB,en;q=0.9","65a69840034890b79a097d95","6a230fc25d128c9d1b56061a","6a26cf73b0c52c0c7d4d591b?","65a69840034890b79a097d95","6a230fc25d128c9d1b56061a","6a26cf73b0c52c0c7d4d591b?","30","[10,8,21,2,24,15,7,26,20,4,29,28,1,25,30,19,11,27,5,3,23,17,6,22,12,14,9,16,13,18]","[""U10"",""U8"",""P21"",""P2"",""P24"",""U15"",""U7"",""U26"",""U20"",""U4"",""P29"",""P28"",""P1"",""U25"",""P30"",""P19"",""P11"",""P27"",""U5"",""U3"",""P23"",""U17"",""P6"",""P22"",""P12"",""U14"",""U9"",""U16"",""U13"",""P18""]","[""P10"",""P8"",""U21"",""U2"",""U24"",""P15"",""P7"",""P26"",""P20"",""P4"",""U29"",""U28"",""U1"",""P25"",""U30"",""U19"",""U11"",""U27"",""P5"",""P3"",""U23"",""P17"",""U6"",""U22"",""U12"",""P14"",""P9"",""P16"",""P13"",""U18""]","5","5","0","0","0","0","","1859","","{""confidence_rating"":""Moderately confident""}","confidence_question","[0]","","","","","","","","","walking","Predictable","","","","P29","29","1","11","","","","","","","","","","","","","Moderately confident"
"","","","","","video-keyboard-response","66","2.0.0","879400","78","1","2026-06-08 14:27:52","segmentation_norming_randomized_order_maxrun_attention_v4","90.240.109.194","Mozilla/5.0 (Macintosh; Intel Mac OS X 10_15_7) AppleWebKit/537.36 (KHTML, like Gecko) Chrome/148.0.0.0 Safari/537.36","Macintosh","Chrome","148.0.0.0","OS X","10_15_7","https://uencdihehs.cognition.run/?PROLIFIC_PID=65a69840034890b79a097d95&STUDY_ID=6a230fc25d128c9d1b56061a&STUDY_ID=6a230fc25d128c9d1b56061a&SESSION_ID=6a26cf73b0c52c0c7d4d591b?PROLIFIC_PID=65a69840034890b79a097d95&SESSION_ID=6a26cf73b0c52c0c7d4d591b?","en-GB,en;q=0.9","65a69840034890b79a097d95","6a230fc25d128c9d1b56061a","6a26cf73b0c52c0c7d4d591b?","65a69840034890b79a097d95","6a230fc25d128c9d1b56061a","6a26cf73b0c52c0c7d4d591b?","30","[10,8,21,2,24,15,7,26,20,4,29,28,1,25,30,19,11,27,5,3,23,17,6,22,12,14,9,16,13,18]","[""U10"",""U8"",""P21"",""P2"",""P24"",""U15"",""U7"",""U26"",""U20"",""U4"",""P29"",""P28"",""P1"",""U25"",""P30"",""P19"",""P11"",""P27"",""U5"",""U3"",""P23"",""U17"",""P6"",""P22"",""P12"",""U14"",""U9"",""U16"",""U13"",""P18""]","[""P10"",""P8"",""U21"",""U2"",""U24"",""P15"",""P7"",""P26"",""P20"",""P4"",""U29"",""U28"",""U1"",""P25"",""U30"",""U19"",""U11"",""U27"",""P5"",""P3"",""U23"",""P17"",""U6"",""U22"",""U12"",""P14"",""P9"",""P16"",""P13"",""U18""]","5","5","0","0","0","0","","null","[""tennis_v1.mp4""]","null","segmentation_video","","","","","","","","","tennis_v1.mp4","tennis","Predictable","[1.836882,5.823118,6.462756,10.568534,11.52269,15.722589,19.868498,22.902417,25.721604,28.09649]","10","","P28","28","1","12","0.6396379999999997","false","false","false","","false","0","0","false","false","false","false",""
"","","","","","survey-multi-choice","69","2.0.0","880926","78","1","2026-06-08 14:27:52","segmentation_norming_randomized_order_maxrun_attention_v4","90.240.109.194","Mozilla/5.0 (Macintosh; Intel Mac OS X 10_15_7) AppleWebKit/537.36 (KHTML, like Gecko) Chrome/148.0.0.0 Safari/537.36","Macintosh","Chrome","148.0.0.0","OS X","10_15_7","https://uencdihehs.cognition.run/?PROLIFIC_PID=65a69840034890b79a097d95&STUDY_ID=6a230fc25d128c9d1b56061a&STUDY_ID=6a230fc25d128c9d1b56061a&SESSION_ID=6a26cf73b0c52c0c7d4d591b?PROLIFIC_PID=65a69840034890b79a097d95&SESSION_ID=6a26cf73b0c52c0c7d4d591b?","en-GB,en;q=0.9","65a69840034890b79a097d95","6a230fc25d128c9d1b56061a","6a26cf73b0c52c0c7d4d591b?","65a69840034890b79a097d95","6a230fc25d128c9d1b56061a","6a26cf73b0c52c0c7d4d591b?","30","[10,8,21,2,24,15,7,26,20,4,29,28,1,25,30,19,11,27,5,3,23,17,6,22,12,14,9,16,13,18]","[""U10"",""U8"",""P21"",""P2"",""P24"",""U15"",""U7"",""U26"",""U20"",""U4"",""P29"",""P28"",""P1"",""U25"",""P30"",""P19"",""P11"",""P27"",""U5"",""U3"",""P23"",""U17"",""P6"",""P22"",""P12"",""U14"",""U9"",""U16"",""U13"",""P18""]","[""P10"",""P8"",""U21"",""U2"",""U24"",""P15"",""P7"",""P26"",""P20"",""P4"",""U29"",""U28"",""U1"",""P25"",""U30"",""U19"",""U11"",""U27"",""P5"",""P3"",""U23"",""P17"",""U6"",""U22"",""U12"",""P14"",""P9"",""P16"",""P13"",""U18""]","5","5","0","0","0","0","","1524","","{""confidence_rating"":""Moderately confident""}","confidence_question","[0]","","","","","","","","","tennis","Predictable","","","","P28","28","1","12","","","","","","","","","","","","","Moderately confident"
"","","","","","video-keyboard-response","70","2.0.0","909795","78","1","2026-06-08 14:27:52","segmentation_norming_randomized_order_maxrun_attention_v4","90.240.109.194","Mozilla/5.0 (Macintosh; Intel Mac OS X 10_15_7) AppleWebKit/537.36 (KHTML, like Gecko) Chrome/148.0.0.0 Safari/537.36","Macintosh","Chrome","148.0.0.0","OS X","10_15_7","https://uencdihehs.cognition.run/?PROLIFIC_PID=65a69840034890b79a097d95&STUDY_ID=6a230fc25d128c9d1b56061a&STUDY_ID=6a230fc25d128c9d1b56061a&SESSION_ID=6a26cf73b0c52c0c7d4d591b?PROLIFIC_PID=65a69840034890b79a097d95&SESSION_ID=6a26cf73b0c52c0c7d4d591b?","en-GB,en;q=0.9","65a69840034890b79a097d95","6a230fc25d128c9d1b56061a","6a26cf73b0c52c0c7d4d591b?","65a69840034890b79a097d95","6a230fc25d128c9d1b56061a","6a26cf73b0c52c0c7d4d591b?","30","[10,8,21,2,24,15,7,26,20,4,29,28,1,25,30,19,11,27,5,3,23,17,6,22,12,14,9,16,13,18]","[""U10"",""U8"",""P21"",""P2"",""P24"",""U15"",""U7"",""U26"",""U20"",""U4"",""P29"",""P28"",""P1"",""U25"",""P30"",""P19"",""P11"",""P27"",""U5"",""U3"",""P23"",""U17"",""P6"",""P22"",""P12"",""U14"",""U9"",""U16"",""U13"",""P18""]","[""P10"",""P8"",""U21"",""U2"",""U24"",""P15"",""P7"",""P26"",""P20"",""P4"",""U29"",""U28"",""U1"",""P25"",""U30"",""U19"",""U11"",""U27"",""P5"",""P3"",""U23"",""P17"",""U6"",""U22"",""U12"",""P14"",""P9"",""P16"",""P13"",""U18""]","5","5","0","0","0","0","","null","[""baking_v1.mp4""]","null","segmentation_video","","","","","","","","","baking_v1.mp4","baking","Predictable","[1.701829,3.425702,4.682042,17.754352,20.791249,22.050129,22.789846,23.394476,25.196468,27.5428]","10","","P1","1","1","13","0.6046300000000002","false","false","false","","false","0","0","false","false","false","false",""
"","","","","","survey-multi-choice","73","2.0.0","913087","78","1","2026-06-08 14:27:52","segmentation_norming_randomized_order_maxrun_attention_v4","90.240.109.194","Mozilla/5.0 (Macintosh; Intel Mac OS X 10_15_7) AppleWebKit/537.36 (KHTML, like Gecko) Chrome/148.0.0.0 Safari/537.36","Macintosh","Chrome","148.0.0.0","OS X","10_15_7","https://uencdihehs.cognition.run/?PROLIFIC_PID=65a69840034890b79a097d95&STUDY_ID=6a230fc25d128c9d1b56061a&STUDY_ID=6a230fc25d128c9d1b56061a&SESSION_ID=6a26cf73b0c52c0c7d4d591b?PROLIFIC_PID=65a69840034890b79a097d95&SESSION_ID=6a26cf73b0c52c0c7d4d591b?","en-GB,en;q=0.9","65a69840034890b79a097d95","6a230fc25d128c9d1b56061a","6a26cf73b0c52c0c7d4d591b?","65a69840034890b79a097d95","6a230fc25d128c9d1b56061a","6a26cf73b0c52c0c7d4d591b?","30","[10,8,21,2,24,15,7,26,20,4,29,28,1,25,30,19,11,27,5,3,23,17,6,22,12,14,9,16,13,18]","[""U10"",""U8"",""P21"",""P2"",""P24"",""U15"",""U7"",""U26"",""U20"",""U4"",""P29"",""P28"",""P1"",""U25"",""P30"",""P19"",""P11"",""P27"",""U5"",""U3"",""P23"",""U17"",""P6"",""P22"",""P12"",""U14"",""U9"",""U16"",""U13"",""P18""]","[""P10"",""P8"",""U21"",""U2"",""U24"",""P15"",""P7"",""P26"",""P20"",""P4"",""U29"",""U28"",""U1"",""P25"",""U30"",""U19"",""U11"",""U27"",""P5"",""P3"",""U23"",""P17"",""U6"",""U22"",""U12"",""P14"",""P9"",""P16"",""P13"",""U18""]","5","5","0","0","0","0","","3290","","{""confidence_rating"":""Very unconfident""}","confidence_question","[0]","","","","","","","","","baking","Predictable","","","","P1","1","1","13","","","","","","","","","","","","","Very unconfident"
"","","","","","video-keyboard-response","74","2.0.0","940353","78","1","2026-06-08 14:27:52","segmentation_norming_randomized_order_maxrun_attention_v4","90.240.109.194","Mozilla/5.0 (Macintosh; Intel Mac OS X 10_15_7) AppleWebKit/537.36 (KHTML, like Gecko) Chrome/148.0.0.0 Safari/537.36","Macintosh","Chrome","148.0.0.0","OS X","10_15_7","https://uencdihehs.cognition.run/?PROLIFIC_PID=65a69840034890b79a097d95&STUDY_ID=6a230fc25d128c9d1b56061a&STUDY_ID=6a230fc25d128c9d1b56061a&SESSION_ID=6a26cf73b0c52c0c7d4d591b?PROLIFIC_PID=65a69840034890b79a097d95&SESSION_ID=6a26cf73b0c52c0c7d4d591b?","en-GB,en;q=0.9","65a69840034890b79a097d95","6a230fc25d128c9d1b56061a","6a26cf73b0c52c0c7d4d591b?","65a69840034890b79a097d95","6a230fc25d128c9d1b56061a","6a26cf73b0c52c0c7d4d591b?","30","[10,8,21,2,24,15,7,26,20,4,29,28,1,25,30,19,11,27,5,3,23,17,6,22,12,14,9,16,13,18]","[""U10"",""U8"",""P21"",""P2"",""P24"",""U15"",""U7"",""U26"",""U20"",""U4"",""P29"",""P28"",""P1"",""U25"",""P30"",""P19"",""P11"",""P27"",""U5"",""U3"",""P23"",""U17"",""P6"",""P22"",""P12"",""U14"",""U9"",""U16"",""U13"",""P18""]","[""P10"",""P8"",""U21"",""U2"",""U24"",""P15"",""P7"",""P26"",""P20"",""P4"",""U29"",""U28"",""U1"",""P25"",""U30"",""U19"",""U11"",""U27"",""P5"",""P3"",""U23"",""P17"",""U6"",""U22"",""U12"",""P14"",""P9"",""P16"",""P13"",""U18""]","5","5","0","0","0","0","","null","[""suitcase_v2.mp4""]","null","segmentation_video","","","","","","","","","suitcase_v2.mp4","suitcase","Unpredictable","[0.522473,11.645696,12.054594,13.591295,15.711551,17.288826,18.158932,18.583063,20.188333,23.627079]","10","","U25","25","1","14","0.40889800000000065","false","false","false","","false","0","0","false","false","false","false",""
"","","","","","survey-multi-choice","77","2.0.0","941893","78","1","2026-06-08 14:27:52","segmentation_norming_randomized_order_maxrun_attention_v4","90.240.109.194","Mozilla/5.0 (Macintosh; Intel Mac OS X 10_15_7) AppleWebKit/537.36 (KHTML, like Gecko) Chrome/148.0.0.0 Safari/537.36","Macintosh","Chrome","148.0.0.0","OS X","10_15_7","https://uencdihehs.cognition.run/?PROLIFIC_PID=65a69840034890b79a097d95&STUDY_ID=6a230fc25d128c9d1b56061a&STUDY_ID=6a230fc25d128c9d1b56061a&SESSION_ID=6a26cf73b0c52c0c7d4d591b?PROLIFIC_PID=65a69840034890b79a097d95&SESSION_ID=6a26cf73b0c52c0c7d4d591b?","en-GB,en;q=0.9","65a69840034890b79a097d95","6a230fc25d128c9d1b56061a","6a26cf73b0c52c0c7d4d591b?","65a69840034890b79a097d95","6a230fc25d128c9d1b56061a","6a26cf73b0c52c0c7d4d591b?","30","[10,8,21,2,24,15,7,26,20,4,29,28,1,25,30,19,11,27,5,3,23,17,6,22,12,14,9,16,13,18]","[""U10"",""U8"",""P21"",""P2"",""P24"",""U15"",""U7"",""U26"",""U20"",""U4"",""P29"",""P28"",""P1"",""U25"",""P30"",""P19"",""P11"",""P27"",""U5"",""U3"",""P23"",""U17"",""P6"",""P22"",""P12"",""U14"",""U9"",""U16"",""U13"",""P18""]","[""P10"",""P8"",""U21"",""U2"",""U24"",""P15"",""P7"",""P26"",""P20"",""P4"",""U29"",""U28"",""U1"",""P25"",""U30"",""U19"",""U11"",""U27"",""P5"",""P3"",""U23"",""P17"",""U6"",""U22"",""U12"",""P14"",""P9"",""P16"",""P13"",""U18""]","5","5","0","0","0","0","","1539","","{""confidence_rating"":""Slightly unconfident""}","confidence_question","[0]","","","","","","","","","suitcase","Unpredictable","","","","U25","25","1","14","","","","","","","","","","","","","Slightly unconfident"
"","","","","","video-keyboard-response","78","2.0.0","978573","78","1","2026-06-08 14:27:52","segmentation_norming_randomized_order_maxrun_attention_v4","90.240.109.194","Mozilla/5.0 (Macintosh; Intel Mac OS X 10_15_7) AppleWebKit/537.36 (KHTML, like Gecko) Chrome/148.0.0.0 Safari/537.36","Macintosh","Chrome","148.0.0.0","OS X","10_15_7","https://uencdihehs.cognition.run/?PROLIFIC_PID=65a69840034890b79a097d95&STUDY_ID=6a230fc25d128c9d1b56061a&STUDY_ID=6a230fc25d128c9d1b56061a&SESSION_ID=6a26cf73b0c52c0c7d4d591b?PROLIFIC_PID=65a69840034890b79a097d95&SESSION_ID=6a26cf73b0c52c0c7d4d591b?","en-GB,en;q=0.9","65a69840034890b79a097d95","6a230fc25d128c9d1b56061a","6a26cf73b0c52c0c7d4d591b?","65a69840034890b79a097d95","6a230fc25d128c9d1b56061a","6a26cf73b0c52c0c7d4d591b?","30","[10,8,21,2,24,15,7,26,20,4,29,28,1,25,30,19,11,27,5,3,23,17,6,22,12,14,9,16,13,18]","[""U10"",""U8"",""P21"",""P2"",""P24"",""U15"",""U7"",""U26"",""U20"",""U4"",""P29"",""P28"",""P1"",""U25"",""P30"",""P19"",""P11"",""P27"",""U5"",""U3"",""P23"",""U17"",""P6"",""P22"",""P12"",""U14"",""U9"",""U16"",""U13"",""P18""]","[""P10"",""P8"",""U21"",""U2"",""U24"",""P15"",""P7"",""P26"",""P20"",""P4"",""U29"",""U28"",""U1"",""P25"",""U30"",""U19"",""U11"",""U27"",""P5"",""P3"",""U23"",""P17"",""U6"",""U22"",""U12"",""P14"",""P9"",""P16"",""P13"",""U18""]","5","5","0","0","0","0","","null","[""whiteboard_v1.mp4""]","null","segmentation_video","","","","","","","","","whiteboard_v1.mp4","whiteboard","Predictable","[0.74794,10.676398,12.286809,14.608084,17.00857,18.114796,20.160557,20.861824,22.949983,24.578802,27.039645,28.2126,29.374055,30.728017]","14","","P30","30","1","15","0.7012669999999979","false","false","false","","false","0","0","false","false","false","false",""
"","","","","","survey-multi-choice","81","2.0.0","980643","78","1","2026-06-08 14:27:52","segmentation_norming_randomized_order_maxrun_attention_v4","90.240.109.194","Mozilla/5.0 (Macintosh; Intel Mac OS X 10_15_7) AppleWebKit/537.36 (KHTML, like Gecko) Chrome/148.0.0.0 Safari/537.36","Macintosh","Chrome","148.0.0.0","OS X","10_15_7","https://uencdihehs.cognition.run/?PROLIFIC_PID=65a69840034890b79a097d95&STUDY_ID=6a230fc25d128c9d1b56061a&STUDY_ID=6a230fc25d128c9d1b56061a&SESSION_ID=6a26cf73b0c52c0c7d4d591b?PROLIFIC_PID=65a69840034890b79a097d95&SESSION_ID=6a26cf73b0c52c0c7d4d591b?","en-GB,en;q=0.9","65a69840034890b79a097d95","6a230fc25d128c9d1b56061a","6a26cf73b0c52c0c7d4d591b?","65a69840034890b79a097d95","6a230fc25d128c9d1b56061a","6a26cf73b0c52c0c7d4d591b?","30","[10,8,21,2,24,15,7,26,20,4,29,28,1,25,30,19,11,27,5,3,23,17,6,22,12,14,9,16,13,18]","[""U10"",""U8"",""P21"",""P2"",""P24"",""U15"",""U7"",""U26"",""U20"",""U4"",""P29"",""P28"",""P1"",""U25"",""P30"",""P19"",""P11"",""P27"",""U5"",""U3"",""P23"",""U17"",""P6"",""P22"",""P12"",""U14"",""U9"",""U16"",""U13"",""P18""]","[""P10"",""P8"",""U21"",""U2"",""U24"",""P15"",""P7"",""P26"",""P20"",""P4"",""U29"",""U28"",""U1"",""P25"",""U30"",""U19"",""U11"",""U27"",""P5"",""P3"",""U23"",""P17"",""U6"",""U22"",""U12"",""P14"",""P9"",""P16"",""P13"",""U18""]","5","5","0","0","0","0","","2069","","{""confidence_rating"":""Slightly unconfident""}","confidence_question","[0]","","","","","","","","","whiteboard","Predictable","","","","P30","30","1","15","","","","","","","","","","","","","Slightly unconfident"
"","","","","","video-keyboard-response","82","2.0.0","1015934","78","1","2026-06-08 14:27:52","segmentation_norming_randomized_order_maxrun_attention_v4","90.240.109.194","Mozilla/5.0 (Macintosh; Intel Mac OS X 10_15_7) AppleWebKit/537.36 (KHTML, like Gecko) Chrome/148.0.0.0 Safari/537.36","Macintosh","Chrome","148.0.0.0","OS X","10_15_7","https://uencdihehs.cognition.run/?PROLIFIC_PID=65a69840034890b79a097d95&STUDY_ID=6a230fc25d128c9d1b56061a&STUDY_ID=6a230fc25d128c9d1b56061a&SESSION_ID=6a26cf73b0c52c0c7d4d591b?PROLIFIC_PID=65a69840034890b79a097d95&SESSION_ID=6a26cf73b0c52c0c7d4d591b?","en-GB,en;q=0.9","65a69840034890b79a097d95","6a230fc25d128c9d1b56061a","6a26cf73b0c52c0c7d4d591b?","65a69840034890b79a097d95","6a230fc25d128c9d1b56061a","6a26cf73b0c52c0c7d4d591b?","30","[10,8,21,2,24,15,7,26,20,4,29,28,1,25,30,19,11,27,5,3,23,17,6,22,12,14,9,16,13,18]","[""U10"",""U8"",""P21"",""P2"",""P24"",""U15"",""U7"",""U26"",""U20"",""U4"",""P29"",""P28"",""P1"",""U25"",""P30"",""P19"",""P11"",""P27"",""U5"",""U3"",""P23"",""U17"",""P6"",""P22"",""P12"",""U14"",""U9"",""U16"",""U13"",""P18""]","[""P10"",""P8"",""U21"",""U2"",""U24"",""P15"",""P7"",""P26"",""P20"",""P4"",""U29"",""U28"",""U1"",""P25"",""U30"",""U19"",""U11"",""U27"",""P5"",""P3"",""U23"",""P17"",""U6"",""U22"",""U12"",""P14"",""P9"",""P16"",""P13"",""U18""]","5","5","0","0","0","0","","null","[""party_v1.mp4""]","null","segmentation_video","","","","","","","","","party_v1.mp4","party","Predictable","[1.124849,2.758304,5.264167,10.302961,12.483795,17.834767,22.287541,23.946529,26.842501,28.322543,34.034301]","11","","P19","19","1","16","1.480042000000001","false","false","false","","false","0","0","false","false","false","false",""
"","","","","","survey-multi-choice","85","2.0.0","1018258","78","1","2026-06-08 14:27:52","segmentation_norming_randomized_order_maxrun_attention_v4","90.240.109.194","Mozilla/5.0 (Macintosh; Intel Mac OS X 10_15_7) AppleWebKit/537.36 (KHTML, like Gecko) Chrome/148.0.0.0 Safari/537.36","Macintosh","Chrome","148.0.0.0","OS X","10_15_7","https://uencdihehs.cognition.run/?PROLIFIC_PID=65a69840034890b79a097d95&STUDY_ID=6a230fc25d128c9d1b56061a&STUDY_ID=6a230fc25d128c9d1b56061a&SESSION_ID=6a26cf73b0c52c0c7d4d591b?PROLIFIC_PID=65a69840034890b79a097d95&SESSION_ID=6a26cf73b0c52c0c7d4d591b?","en-GB,en;q=0.9","65a69840034890b79a097d95","6a230fc25d128c9d1b56061a","6a26cf73b0c52c0c7d4d591b?","65a69840034890b79a097d95","6a230fc25d128c9d1b56061a","6a26cf73b0c52c0c7d4d591b?","30","[10,8,21,2,24,15,7,26,20,4,29,28,1,25,30,19,11,27,5,3,23,17,6,22,12,14,9,16,13,18]","[""U10"",""U8"",""P21"",""P2"",""P24"",""U15"",""U7"",""U26"",""U20"",""U4"",""P29"",""P28"",""P1"",""U25"",""P30"",""P19"",""P11"",""P27"",""U5"",""U3"",""P23"",""U17"",""P6"",""P22"",""P12"",""U14"",""U9"",""U16"",""U13"",""P18""]","[""P10"",""P8"",""U21"",""U2"",""U24"",""P15"",""P7"",""P26"",""P20"",""P4"",""U29"",""U28"",""U1"",""P25"",""U30"",""U19"",""U11"",""U27"",""P5"",""P3"",""U23"",""P17"",""U6"",""U22"",""U12"",""P14"",""P9"",""P16"",""P13"",""U18""]","5","5","0","0","0","0","","2323","","{""confidence_rating"":""Neutral""}","confidence_question","[0]","","","","","","","","","party","Predictable","","","","P19","19","1","16","","","","","","","","","","","","","Neutral"
"","","","","","video-keyboard-response","86","2.0.0","1049371","78","1","2026-06-08 14:27:52","segmentation_norming_randomized_order_maxrun_attention_v4","90.240.109.194","Mozilla/5.0 (Macintosh; Intel Mac OS X 10_15_7) AppleWebKit/537.36 (KHTML, like Gecko) Chrome/148.0.0.0 Safari/537.36","Macintosh","Chrome","148.0.0.0","OS X","10_15_7","https://uencdihehs.cognition.run/?PROLIFIC_PID=65a69840034890b79a097d95&STUDY_ID=6a230fc25d128c9d1b56061a&STUDY_ID=6a230fc25d128c9d1b56061a&SESSION_ID=6a26cf73b0c52c0c7d4d591b?PROLIFIC_PID=65a69840034890b79a097d95&SESSION_ID=6a26cf73b0c52c0c7d4d591b?","en-GB,en;q=0.9","65a69840034890b79a097d95","6a230fc25d128c9d1b56061a","6a26cf73b0c52c0c7d4d591b?","65a69840034890b79a097d95","6a230fc25d128c9d1b56061a","6a26cf73b0c52c0c7d4d591b?","30","[10,8,21,2,24,15,7,26,20,4,29,28,1,25,30,19,11,27,5,3,23,17,6,22,12,14,9,16,13,18]","[""U10"",""U8"",""P21"",""P2"",""P24"",""U15"",""U7"",""U26"",""U20"",""U4"",""P29"",""P28"",""P1"",""U25"",""P30"",""P19"",""P11"",""P27"",""U5"",""U3"",""P23"",""U17"",""P6"",""P22"",""P12"",""U14"",""U9"",""U16"",""U13"",""P18""]","[""P10"",""P8"",""U21"",""U2"",""U24"",""P15"",""P7"",""P26"",""P20"",""P4"",""U29"",""U28"",""U1"",""P25"",""U30"",""U19"",""U11"",""U27"",""P5"",""P3"",""U23"",""P17"",""U6"",""U22"",""U12"",""P14"",""P9"",""P16"",""P13"",""U18""]","5","5","0","0","0","0","","null","[""fireplace_v1.mp4""]","null","segmentation_video","","","","","","","","","fireplace_v1.mp4","fireplace","Predictable","[1.420096,4.078432,6.03953,6.841727,8.417757,13.443505,14.562427,15.359228,16.18249,17.380987,20.073207,25.263924,30.447694]","13","","P11","11","1","17","0.7968010000000003","false","false","false","","false","0","0","false","false","false","false",""
"","","","","","survey-multi-choice","89","2.0.0","1051544","78","1","2026-06-08 14:27:52","segmentation_norming_randomized_order_maxrun_attention_v4","90.240.109.194","Mozilla/5.0 (Macintosh; Intel Mac OS X 10_15_7) AppleWebKit/537.36 (KHTML, like Gecko) Chrome/148.0.0.0 Safari/537.36","Macintosh","Chrome","148.0.0.0","OS X","10_15_7","https://uencdihehs.cognition.run/?PROLIFIC_PID=65a69840034890b79a097d95&STUDY_ID=6a230fc25d128c9d1b56061a&STUDY_ID=6a230fc25d128c9d1b56061a&SESSION_ID=6a26cf73b0c52c0c7d4d591b?PROLIFIC_PID=65a69840034890b79a097d95&SESSION_ID=6a26cf73b0c52c0c7d4d591b?","en-GB,en;q=0.9","65a69840034890b79a097d95","6a230fc25d128c9d1b56061a","6a26cf73b0c52c0c7d4d591b?","65a69840034890b79a097d95","6a230fc25d128c9d1b56061a","6a26cf73b0c52c0c7d4d591b?","30","[10,8,21,2,24,15,7,26,20,4,29,28,1,25,30,19,11,27,5,3,23,17,6,22,12,14,9,16,13,18]","[""U10"",""U8"",""P21"",""P2"",""P24"",""U15"",""U7"",""U26"",""U20"",""U4"",""P29"",""P28"",""P1"",""U25"",""P30"",""P19"",""P11"",""P27"",""U5"",""U3"",""P23"",""U17"",""P6"",""P22"",""P12"",""U14"",""U9"",""U16"",""U13"",""P18""]","[""P10"",""P8"",""U21"",""U2"",""U24"",""P15"",""P7"",""P26"",""P20"",""P4"",""U29"",""U28"",""U1"",""P25"",""U30"",""U19"",""U11"",""U27"",""P5"",""P3"",""U23"",""P17"",""U6"",""U22"",""U12"",""P14"",""P9"",""P16"",""P13"",""U18""]","5","5","0","0","0","0","","2172","","{""confidence_rating"":""Moderately confident""}","confidence_question","[0]","","","","","","","","","fireplace","Predictable","","","","P11","11","1","17","","","","","","","","","","","","","Moderately confident"
"","","","","","video-keyboard-response","90","2.0.0","1082553","78","1","2026-06-08 14:27:52","segmentation_norming_randomized_order_maxrun_attention_v4","90.240.109.194","Mozilla/5.0 (Macintosh; Intel Mac OS X 10_15_7) AppleWebKit/537.36 (KHTML, like Gecko) Chrome/148.0.0.0 Safari/537.36","Macintosh","Chrome","148.0.0.0","OS X","10_15_7","https://uencdihehs.cognition.run/?PROLIFIC_PID=65a69840034890b79a097d95&STUDY_ID=6a230fc25d128c9d1b56061a&STUDY_ID=6a230fc25d128c9d1b56061a&SESSION_ID=6a26cf73b0c52c0c7d4d591b?PROLIFIC_PID=65a69840034890b79a097d95&SESSION_ID=6a26cf73b0c52c0c7d4d591b?","en-GB,en;q=0.9","65a69840034890b79a097d95","6a230fc25d128c9d1b56061a","6a26cf73b0c52c0c7d4d591b?","65a69840034890b79a097d95","6a230fc25d128c9d1b56061a","6a26cf73b0c52c0c7d4d591b?","30","[10,8,21,2,24,15,7,26,20,4,29,28,1,25,30,19,11,27,5,3,23,17,6,22,12,14,9,16,13,18]","[""U10"",""U8"",""P21"",""P2"",""P24"",""U15"",""U7"",""U26"",""U20"",""U4"",""P29"",""P28"",""P1"",""U25"",""P30"",""P19"",""P11"",""P27"",""U5"",""U3"",""P23"",""U17"",""P6"",""P22"",""P12"",""U14"",""U9"",""U16"",""U13"",""P18""]","[""P10"",""P8"",""U21"",""U2"",""U24"",""P15"",""P7"",""P26"",""P20"",""P4"",""U29"",""U28"",""U1"",""P25"",""U30"",""U19"",""U11"",""U27"",""P5"",""P3"",""U23"",""P17"",""U6"",""U22"",""U12"",""P14"",""P9"",""P16"",""P13"",""U18""]","5","5","0","0","0","0","","null","[""tea_v1.mp4""]","null","segmentation_video","","","","","","","","","tea_v1.mp4","tea","Predictable","[1.068007,8.182228,8.852535,11.348262,18.909748,19.308671,22.166774,24.5536,25.874812,27.721994,28.79058,30.180907]","12","","P27","27","1","18","0.3989229999999999","false","false","false","","false","0","0","false","false","false","false",""
"","","","","","survey-multi-choice","93","2.0.0","1086691","78","1","2026-06-08 14:27:52","segmentation_norming_randomized_order_maxrun_attention_v4","90.240.109.194","Mozilla/5.0 (Macintosh; Intel Mac OS X 10_15_7) AppleWebKit/537.36 (KHTML, like Gecko) Chrome/148.0.0.0 Safari/537.36","Macintosh","Chrome","148.0.0.0","OS X","10_15_7","https://uencdihehs.cognition.run/?PROLIFIC_PID=65a69840034890b79a097d95&STUDY_ID=6a230fc25d128c9d1b56061a&STUDY_ID=6a230fc25d128c9d1b56061a&SESSION_ID=6a26cf73b0c52c0c7d4d591b?PROLIFIC_PID=65a69840034890b79a097d95&SESSION_ID=6a26cf73b0c52c0c7d4d591b?","en-GB,en;q=0.9","65a69840034890b79a097d95","6a230fc25d128c9d1b56061a","6a26cf73b0c52c0c7d4d591b?","65a69840034890b79a097d95","6a230fc25d128c9d1b56061a","6a26cf73b0c52c0c7d4d591b?","30","[10,8,21,2,24,15,7,26,20,4,29,28,1,25,30,19,11,27,5,3,23,17,6,22,12,14,9,16,13,18]","[""U10"",""U8"",""P21"",""P2"",""P24"",""U15"",""U7"",""U26"",""U20"",""U4"",""P29"",""P28"",""P1"",""U25"",""P30"",""P19"",""P11"",""P27"",""U5"",""U3"",""P23"",""U17"",""P6"",""P22"",""P12"",""U14"",""U9"",""U16"",""U13"",""P18""]","[""P10"",""P8"",""U21"",""U2"",""U24"",""P15"",""P7"",""P26"",""P20"",""P4"",""U29"",""U28"",""U1"",""P25"",""U30"",""U19"",""U11"",""U27"",""P5"",""P3"",""U23"",""P17"",""U6"",""U22"",""U12"",""P14"",""P9"",""P16"",""P13"",""U18""]","5","5","0","0","0","0","","4137","","{""confidence_rating"":""Moderately confident""}","confidence_question","[0]","","","","","","","","","tea","Predictable","","","","P27","27","1","18","","","","","","","","","","","","","Moderately confident"
"","","","","","video-keyboard-response","94","2.0.0","1113575","78","1","2026-06-08 14:27:52","segmentation_norming_randomized_order_maxrun_attention_v4","90.240.109.194","Mozilla/5.0 (Macintosh; Intel Mac OS X 10_15_7) AppleWebKit/537.36 (KHTML, like Gecko) Chrome/148.0.0.0 Safari/537.36","Macintosh","Chrome","148.0.0.0","OS X","10_15_7","https://uencdihehs.cognition.run/?PROLIFIC_PID=65a69840034890b79a097d95&STUDY_ID=6a230fc25d128c9d1b56061a&STUDY_ID=6a230fc25d128c9d1b56061a&SESSION_ID=6a26cf73b0c52c0c7d4d591b?PROLIFIC_PID=65a69840034890b79a097d95&SESSION_ID=6a26cf73b0c52c0c7d4d591b?","en-GB,en;q=0.9","65a69840034890b79a097d95","6a230fc25d128c9d1b56061a","6a26cf73b0c52c0c7d4d591b?","65a69840034890b79a097d95","6a230fc25d128c9d1b56061a","6a26cf73b0c52c0c7d4d591b?","30","[10,8,21,2,24,15,7,26,20,4,29,28,1,25,30,19,11,27,5,3,23,17,6,22,12,14,9,16,13,18]","[""U10"",""U8"",""P21"",""P2"",""P24"",""U15"",""U7"",""U26"",""U20"",""U4"",""P29"",""P28"",""P1"",""U25"",""P30"",""P19"",""P11"",""P27"",""U5"",""U3"",""P23"",""U17"",""P6"",""P22"",""P12"",""U14"",""U9"",""U16"",""U13"",""P18""]","[""P10"",""P8"",""U21"",""U2"",""U24"",""P15"",""P7"",""P26"",""P20"",""P4"",""U29"",""U28"",""U1"",""P25"",""U30"",""U19"",""U11"",""U27"",""P5"",""P3"",""U23"",""P17"",""U6"",""U22"",""U12"",""P14"",""P9"",""P16"",""P13"",""U18""]","5","5","0","0","0","0","","null","[""beach_v2.mp4""]","null","segmentation_video","","","","","","","","","beach_v2.mp4","beach","Unpredictable","[1.873679,3.996334,4.427,5.396337,8.005212,11.896133,12.797638,14.156374,14.985452,16.532203,17.201374,18.904383,21.433389,22.223339,24.043321,25.609241]","16","","U5","5","1","19","0.43066599999999955","false","false","false","","false","0","0","false","false","false","false",""
"","","","","","survey-multi-choice","97","2.0.0","1171207","78","1","2026-06-08 14:27:52","segmentation_norming_randomized_order_maxrun_attention_v4","90.240.109.194","Mozilla/5.0 (Macintosh; Intel Mac OS X 10_15_7) AppleWebKit/537.36 (KHTML, like Gecko) Chrome/148.0.0.0 Safari/537.36","Macintosh","Chrome","148.0.0.0","OS X","10_15_7","https://uencdihehs.cognition.run/?PROLIFIC_PID=65a69840034890b79a097d95&STUDY_ID=6a230fc25d128c9d1b56061a&STUDY_ID=6a230fc25d128c9d1b56061a&SESSION_ID=6a26cf73b0c52c0c7d4d591b?PROLIFIC_PID=65a69840034890b79a097d95&SESSION_ID=6a26cf73b0c52c0c7d4d591b?","en-GB,en;q=0.9","65a69840034890b79a097d95","6a230fc25d128c9d1b56061a","6a26cf73b0c52c0c7d4d591b?","65a69840034890b79a097d95","6a230fc25d128c9d1b56061a","6a26cf73b0c52c0c7d4d591b?","30","[10,8,21,2,24,15,7,26,20,4,29,28,1,25,30,19,11,27,5,3,23,17,6,22,12,14,9,16,13,18]","[""U10"",""U8"",""P21"",""P2"",""P24"",""U15"",""U7"",""U26"",""U20"",""U4"",""P29"",""P28"",""P1"",""U25"",""P30"",""P19"",""P11"",""P27"",""U5"",""U3"",""P23"",""U17"",""P6"",""P22"",""P12"",""U14"",""U9"",""U16"",""U13"",""P18""]","[""P10"",""P8"",""U21"",""U2"",""U24"",""P15"",""P7"",""P26"",""P20"",""P4"",""U29"",""U28"",""U1"",""P25"",""U30"",""U19"",""U11"",""U27"",""P5"",""P3"",""U23"",""P17"",""U6"",""U22"",""U12"",""P14"",""P9"",""P16"",""P13"",""U18""]","5","5","0","0","0","0","","57631","","{""confidence_rating"":""Moderately confident""}","confidence_question","[0]","","","","","","","","","beach","Unpredictable","","","","U5","5","1","19","","","","","","","","","","","","","Moderately confident"
