"success","timeout","failed_images","failed_audio","failed_video","trial_type","trial_index","plugin_version","time_elapsed","run_id","condition","recorded_at","source_code_version","ip","user_agent","device","browser","browser_version","platform","platform_version","referer","accept_language","PROLIFIC_PID","STUDY_ID","SESSION_ID","subject_id","study_id","session_id","pair_count","randomized_pair_order","block1_codes","block2_codes","max_run_block1","max_run_block2","fullscreen_exit_count","tab_switch_count","video_attention_failure_count","total_attention_violation_count","view_history","rt","stimulus","response","trial_kind","question_order","spacebar_question_answer","attention_question_answer","spacebar_question_correct","attention_question_correct","instruction_check_passed","demo_index","demo_code","stimulus_file","stimulus_name","predictability","boundary_times_sec","boundary_count","value","video_code","pair_number","block","global_position_in_block","min_press_gap_sec","no_press_failure","rapid_press_failure","video_attention_failed","video_attention_failure_type","last_video_had_any_attention_violation","current_video_fullscreen_exit_count","current_video_tab_switch_count","current_video_had_fullscreen_exit","current_video_had_tab_switch","current_video_had_video_attention_failure","skipped_video_debug","confidence_rating"
"true","false","[]","[]","[]","preload","0","2.0.0","1438","66","1","2026-06-08 14:05:25","segmentation_norming_randomized_order_maxrun_attention_v4","81.99.50.76","Mozilla/5.0 (Windows NT 10.0; Win64; x64) AppleWebKit/537.36 (KHTML, like Gecko) Chrome/148.0.0.0 Safari/537.36","WebKit","Chrome","148.0.0.0","Windows","10.0","https://uencdihehs.cognition.run/?PROLIFIC_PID=6a02fc6e1186071261f2734f&STUDY_ID=6a230fc25d128c9d1b56061a&STUDY_ID=6a230fc25d128c9d1b56061a&SESSION_ID=6a26cc17d17ccd6b54b3fa2a?PROLIFIC_PID=6a02fc6e1186071261f2734f&SESSION_ID=6a26cc17d17ccd6b54b3fa2a?","en-US,en;q=0.9","6a02fc6e1186071261f2734f","6a230fc25d128c9d1b56061a","6a26cc17d17ccd6b54b3fa2a?","6a02fc6e1186071261f2734f","6a230fc25d128c9d1b56061a","6a26cc17d17ccd6b54b3fa2a?","30","[17,4,11,21,13,14,1,12,7,3,18,10,9,25,30,27,5,15,19,8,29,6,26,16,20,23,24,2,22,28]","[""U17"",""U4"",""U11"",""U21"",""P13"",""U14"",""P1"",""U12"",""P7"",""U3"",""P18"",""U10"",""P9"",""U25"",""U30"",""U27"",""P5"",""P15"",""P19"",""P8"",""P29"",""U6"",""P26"",""P16"",""U20"",""U23"",""P24"",""U2"",""U22"",""U28""]","[""P17"",""P4"",""P11"",""P21"",""U13"",""P14"",""U1"",""P12"",""U7"",""P3"",""U18"",""P10"",""U9"",""P25"",""P30"",""P27"",""U5"",""U15"",""U19"",""U8"",""U29"",""P6"",""U26"",""U16"",""P20"",""P23"",""U24"",""P2"",""P22"",""P28""]","5","5","0","0","0","0","","","","","","","","","","","","","","","","","","","","","","","","","","","","","","","","","","","",""
"","","","","","instructions","1","2.0.0","8852","66","1","2026-06-08 14:05:25","segmentation_norming_randomized_order_maxrun_attention_v4","81.99.50.76","Mozilla/5.0 (Windows NT 10.0; Win64; x64) AppleWebKit/537.36 (KHTML, like Gecko) Chrome/148.0.0.0 Safari/537.36","WebKit","Chrome","148.0.0.0","Windows","10.0","https://uencdihehs.cognition.run/?PROLIFIC_PID=6a02fc6e1186071261f2734f&STUDY_ID=6a230fc25d128c9d1b56061a&STUDY_ID=6a230fc25d128c9d1b56061a&SESSION_ID=6a26cc17d17ccd6b54b3fa2a?PROLIFIC_PID=6a02fc6e1186071261f2734f&SESSION_ID=6a26cc17d17ccd6b54b3fa2a?","en-US,en;q=0.9","6a02fc6e1186071261f2734f","6a230fc25d128c9d1b56061a","6a26cc17d17ccd6b54b3fa2a?","6a02fc6e1186071261f2734f","6a230fc25d128c9d1b56061a","6a26cc17d17ccd6b54b3fa2a?","30","[17,4,11,21,13,14,1,12,7,3,18,10,9,25,30,27,5,15,19,8,29,6,26,16,20,23,24,2,22,28]","[""U17"",""U4"",""U11"",""U21"",""P13"",""U14"",""P1"",""U12"",""P7"",""U3"",""P18"",""U10"",""P9"",""U25"",""U30"",""U27"",""P5"",""P15"",""P19"",""P8"",""P29"",""U6"",""P26"",""P16"",""U20"",""U23"",""P24"",""U2"",""U22"",""U28""]","[""P17"",""P4"",""P11"",""P21"",""U13"",""P14"",""U1"",""P12"",""U7"",""P3"",""U18"",""P10"",""U9"",""P25"",""P30"",""P27"",""U5"",""U15"",""U19"",""U8"",""U29"",""P6"",""U26"",""U16"",""P20"",""P23"",""U24"",""P2"",""P22"",""P28""]","5","5","0","0","0","0","[{""page_index"":0,""viewing_time"":7413}]","7413","","","","","","","","","","","","","","","","","","","","","","","","","","","","","","","","","",""
"true","","","","","fullscreen","2","2.0.0","14196","66","1","2026-06-08 14:05:25","segmentation_norming_randomized_order_maxrun_attention_v4","81.99.50.76","Mozilla/5.0 (Windows NT 10.0; Win64; x64) AppleWebKit/537.36 (KHTML, like Gecko) Chrome/148.0.0.0 Safari/537.36","WebKit","Chrome","148.0.0.0","Windows","10.0","https://uencdihehs.cognition.run/?PROLIFIC_PID=6a02fc6e1186071261f2734f&STUDY_ID=6a230fc25d128c9d1b56061a&STUDY_ID=6a230fc25d128c9d1b56061a&SESSION_ID=6a26cc17d17ccd6b54b3fa2a?PROLIFIC_PID=6a02fc6e1186071261f2734f&SESSION_ID=6a26cc17d17ccd6b54b3fa2a?","en-US,en;q=0.9","6a02fc6e1186071261f2734f","6a230fc25d128c9d1b56061a","6a26cc17d17ccd6b54b3fa2a?","6a02fc6e1186071261f2734f","6a230fc25d128c9d1b56061a","6a26cc17d17ccd6b54b3fa2a?","30","[17,4,11,21,13,14,1,12,7,3,18,10,9,25,30,27,5,15,19,8,29,6,26,16,20,23,24,2,22,28]","[""U17"",""U4"",""U11"",""U21"",""P13"",""U14"",""P1"",""U12"",""P7"",""U3"",""P18"",""U10"",""P9"",""U25"",""U30"",""U27"",""P5"",""P15"",""P19"",""P8"",""P29"",""U6"",""P26"",""P16"",""U20"",""U23"",""P24"",""U2"",""U22"",""U28""]","[""P17"",""P4"",""P11"",""P21"",""U13"",""P14"",""U1"",""P12"",""U7"",""P3"",""U18"",""P10"",""U9"",""P25"",""P30"",""P27"",""U5"",""U15"",""U19"",""U8"",""U29"",""P6"",""U26"",""U16"",""P20"",""P23"",""U24"",""P2"",""P22"",""P28""]","5","5","0","0","0","0","","4339","","","","","","","","","","","","","","","","","","","","","","","","","","","","","","","","","",""
"","","","","","html-button-response","3","2.0.0","23205","66","1","2026-06-08 14:05:25","segmentation_norming_randomized_order_maxrun_attention_v4","81.99.50.76","Mozilla/5.0 (Windows NT 10.0; Win64; x64) AppleWebKit/537.36 (KHTML, like Gecko) Chrome/148.0.0.0 Safari/537.36","WebKit","Chrome","148.0.0.0","Windows","10.0","https://uencdihehs.cognition.run/?PROLIFIC_PID=6a02fc6e1186071261f2734f&STUDY_ID=6a230fc25d128c9d1b56061a&STUDY_ID=6a230fc25d128c9d1b56061a&SESSION_ID=6a26cc17d17ccd6b54b3fa2a?PROLIFIC_PID=6a02fc6e1186071261f2734f&SESSION_ID=6a26cc17d17ccd6b54b3fa2a?","en-US,en;q=0.9","6a02fc6e1186071261f2734f","6a230fc25d128c9d1b56061a","6a26cc17d17ccd6b54b3fa2a?","6a02fc6e1186071261f2734f","6a230fc25d128c9d1b56061a","6a26cc17d17ccd6b54b3fa2a?","30","[17,4,11,21,13,14,1,12,7,3,18,10,9,25,30,27,5,15,19,8,29,6,26,16,20,23,24,2,22,28]","[""U17"",""U4"",""U11"",""U21"",""P13"",""U14"",""P1"",""U12"",""P7"",""U3"",""P18"",""U10"",""P9"",""U25"",""U30"",""U27"",""P5"",""P15"",""P19"",""P8"",""P29"",""U6"",""P26"",""P16"",""U20"",""U23"",""P24"",""U2"",""U22"",""U28""]","[""P17"",""P4"",""P11"",""P21"",""U13"",""P14"",""U1"",""P12"",""U7"",""P3"",""U18"",""P10"",""U9"",""P25"",""P30"",""P27"",""U5"",""U15"",""U19"",""U8"",""U29"",""P6"",""U26"",""U16"",""P20"",""P23"",""U24"",""P2"",""P22"",""P28""]","5","5","0","0","0","0","","9009","The experiment requires continuous attention and full-screen participation throughout the task.<br><br>You may be asked to exit the experiment and cancel your participation if you exit Full Screen Mode, switch tabs, or fail to meet the attention criteria more than the allowed number of times.<br><br>Please read the following instructions carefully.","0","","","","","","","","","","","","","","","","","","","","","","","","","","","","","","","",""
"","","","","","instructions","4","2.0.0","47718","66","1","2026-06-08 14:05:25","segmentation_norming_randomized_order_maxrun_attention_v4","81.99.50.76","Mozilla/5.0 (Windows NT 10.0; Win64; x64) AppleWebKit/537.36 (KHTML, like Gecko) Chrome/148.0.0.0 Safari/537.36","WebKit","Chrome","148.0.0.0","Windows","10.0","https://uencdihehs.cognition.run/?PROLIFIC_PID=6a02fc6e1186071261f2734f&STUDY_ID=6a230fc25d128c9d1b56061a&STUDY_ID=6a230fc25d128c9d1b56061a&SESSION_ID=6a26cc17d17ccd6b54b3fa2a?PROLIFIC_PID=6a02fc6e1186071261f2734f&SESSION_ID=6a26cc17d17ccd6b54b3fa2a?","en-US,en;q=0.9","6a02fc6e1186071261f2734f","6a230fc25d128c9d1b56061a","6a26cc17d17ccd6b54b3fa2a?","6a02fc6e1186071261f2734f","6a230fc25d128c9d1b56061a","6a26cc17d17ccd6b54b3fa2a?","30","[17,4,11,21,13,14,1,12,7,3,18,10,9,25,30,27,5,15,19,8,29,6,26,16,20,23,24,2,22,28]","[""U17"",""U4"",""U11"",""U21"",""P13"",""U14"",""P1"",""U12"",""P7"",""U3"",""P18"",""U10"",""P9"",""U25"",""U30"",""U27"",""P5"",""P15"",""P19"",""P8"",""P29"",""U6"",""P26"",""P16"",""U20"",""U23"",""P24"",""U2"",""U22"",""U28""]","[""P17"",""P4"",""P11"",""P21"",""U13"",""P14"",""U1"",""P12"",""U7"",""P3"",""U18"",""P10"",""U9"",""P25"",""P30"",""P27"",""U5"",""U15"",""U19"",""U8"",""U29"",""P6"",""U26"",""U16"",""P20"",""P23"",""U24"",""P2"",""P22"",""P28""]","5","5","0","0","0","0","[{""page_index"":0,""viewing_time"":24512}]","24512","","","","","","","","","","","","","","","","","","","","","","","","","","","","","","","","","",""
"","","","","","html-button-response","5","2.0.0","64357","66","1","2026-06-08 14:05:25","segmentation_norming_randomized_order_maxrun_attention_v4","81.99.50.76","Mozilla/5.0 (Windows NT 10.0; Win64; x64) AppleWebKit/537.36 (KHTML, like Gecko) Chrome/148.0.0.0 Safari/537.36","WebKit","Chrome","148.0.0.0","Windows","10.0","https://uencdihehs.cognition.run/?PROLIFIC_PID=6a02fc6e1186071261f2734f&STUDY_ID=6a230fc25d128c9d1b56061a&STUDY_ID=6a230fc25d128c9d1b56061a&SESSION_ID=6a26cc17d17ccd6b54b3fa2a?PROLIFIC_PID=6a02fc6e1186071261f2734f&SESSION_ID=6a26cc17d17ccd6b54b3fa2a?","en-US,en;q=0.9","6a02fc6e1186071261f2734f","6a230fc25d128c9d1b56061a","6a26cc17d17ccd6b54b3fa2a?","6a02fc6e1186071261f2734f","6a230fc25d128c9d1b56061a","6a26cc17d17ccd6b54b3fa2a?","30","[17,4,11,21,13,14,1,12,7,3,18,10,9,25,30,27,5,15,19,8,29,6,26,16,20,23,24,2,22,28]","[""U17"",""U4"",""U11"",""U21"",""P13"",""U14"",""P1"",""U12"",""P7"",""U3"",""P18"",""U10"",""P9"",""U25"",""U30"",""U27"",""P5"",""P15"",""P19"",""P8"",""P29"",""U6"",""P26"",""P16"",""U20"",""U23"",""P24"",""U2"",""U22"",""U28""]","[""P17"",""P4"",""P11"",""P21"",""U13"",""P14"",""U1"",""P12"",""U7"",""P3"",""U18"",""P10"",""U9"",""P25"",""P30"",""P27"",""U5"",""U15"",""U19"",""U8"",""U29"",""P6"",""U26"",""U16"",""P20"",""P23"",""U24"",""P2"",""P22"",""P28""]","5","5","0","0","0","0","","16639","Please pay attention when watching videos and marking boundaries.<br><br>There are several hidden attention criteria to make sure you watch the videos carefully.<br><br>If you fail these hidden criteria more than the allowed number of times, you may be asked to exit the experiment.","0","","","","","","","","","","","","","","","","","","","","","","","","","","","","","","","",""
"","","","","","survey-multi-choice","6","2.0.0","81782","66","1","2026-06-08 14:05:25","segmentation_norming_randomized_order_maxrun_attention_v4","81.99.50.76","Mozilla/5.0 (Windows NT 10.0; Win64; x64) AppleWebKit/537.36 (KHTML, like Gecko) Chrome/148.0.0.0 Safari/537.36","WebKit","Chrome","148.0.0.0","Windows","10.0","https://uencdihehs.cognition.run/?PROLIFIC_PID=6a02fc6e1186071261f2734f&STUDY_ID=6a230fc25d128c9d1b56061a&STUDY_ID=6a230fc25d128c9d1b56061a&SESSION_ID=6a26cc17d17ccd6b54b3fa2a?PROLIFIC_PID=6a02fc6e1186071261f2734f&SESSION_ID=6a26cc17d17ccd6b54b3fa2a?","en-US,en;q=0.9","6a02fc6e1186071261f2734f","6a230fc25d128c9d1b56061a","6a26cc17d17ccd6b54b3fa2a?","6a02fc6e1186071261f2734f","6a230fc25d128c9d1b56061a","6a26cc17d17ccd6b54b3fa2a?","30","[17,4,11,21,13,14,1,12,7,3,18,10,9,25,30,27,5,15,19,8,29,6,26,16,20,23,24,2,22,28]","[""U17"",""U4"",""U11"",""U21"",""P13"",""U14"",""P1"",""U12"",""P7"",""U3"",""P18"",""U10"",""P9"",""U25"",""U30"",""U27"",""P5"",""P15"",""P19"",""P8"",""P29"",""U6"",""P26"",""P16"",""U20"",""U23"",""P24"",""U2"",""U22"",""U28""]","[""P17"",""P4"",""P11"",""P21"",""U13"",""P14"",""U1"",""P12"",""U7"",""P3"",""U18"",""P10"",""U9"",""P25"",""P30"",""P27"",""U5"",""U15"",""U19"",""U8"",""U29"",""P6"",""U26"",""U16"",""P20"",""P23"",""U24"",""P2"",""P22"",""P28""]","5","5","0","0","0","0","","17423","","{""spacebar_question"":""Between the smallest meaningful events or actions"",""attention_question"":""Press space bar to segment the video""}","comprehension_check","[0,1]","Between the smallest meaningful events or actions","Press space bar to segment the video","true","true","true","","","","","","","","","","","","","","","","","","","","","","","","",""
"","","","","","html-button-response","8","2.0.0","94414","66","1","2026-06-08 14:05:25","segmentation_norming_randomized_order_maxrun_attention_v4","81.99.50.76","Mozilla/5.0 (Windows NT 10.0; Win64; x64) AppleWebKit/537.36 (KHTML, like Gecko) Chrome/148.0.0.0 Safari/537.36","WebKit","Chrome","148.0.0.0","Windows","10.0","https://uencdihehs.cognition.run/?PROLIFIC_PID=6a02fc6e1186071261f2734f&STUDY_ID=6a230fc25d128c9d1b56061a&STUDY_ID=6a230fc25d128c9d1b56061a&SESSION_ID=6a26cc17d17ccd6b54b3fa2a?PROLIFIC_PID=6a02fc6e1186071261f2734f&SESSION_ID=6a26cc17d17ccd6b54b3fa2a?","en-US,en;q=0.9","6a02fc6e1186071261f2734f","6a230fc25d128c9d1b56061a","6a26cc17d17ccd6b54b3fa2a?","6a02fc6e1186071261f2734f","6a230fc25d128c9d1b56061a","6a26cc17d17ccd6b54b3fa2a?","30","[17,4,11,21,13,14,1,12,7,3,18,10,9,25,30,27,5,15,19,8,29,6,26,16,20,23,24,2,22,28]","[""U17"",""U4"",""U11"",""U21"",""P13"",""U14"",""P1"",""U12"",""P7"",""U3"",""P18"",""U10"",""P9"",""U25"",""U30"",""U27"",""P5"",""P15"",""P19"",""P8"",""P29"",""U6"",""P26"",""P16"",""U20"",""U23"",""P24"",""U2"",""U22"",""U28""]","[""P17"",""P4"",""P11"",""P21"",""U13"",""P14"",""U1"",""P12"",""U7"",""P3"",""U18"",""P10"",""U9"",""P25"",""P30"",""P27"",""U5"",""U15"",""U19"",""U8"",""U29"",""P6"",""U26"",""U16"",""P20"",""P23"",""U24"",""P2"",""P22"",""P28""]","5","5","0","0","0","0","","12630","You have learned the instructions for the task! Here is a demo trial.<br><br>Like what you will do in the main experiment,<br><br> you will watch a movie clip and at the same time mark off the activity in the movie into the <strong>smallest meaningful units</strong> that seem natural and meaningful to you.<br><br>Remember, tap the <strong>SPACE BAR</strong> to mark off a boundary between two <strong>smallest meaningful units</strong> of activity.<br><br>A green bar will appear at the bottom of the screen when you press the button.<br><br>","0","","","","","","","","","","","","","","","","","","","","","","","","","","","","","","","",""
"","","","","","video-keyboard-response","9","2.0.0","111161","66","1","2026-06-08 14:05:25","segmentation_norming_randomized_order_maxrun_attention_v4","81.99.50.76","Mozilla/5.0 (Windows NT 10.0; Win64; x64) AppleWebKit/537.36 (KHTML, like Gecko) Chrome/148.0.0.0 Safari/537.36","WebKit","Chrome","148.0.0.0","Windows","10.0","https://uencdihehs.cognition.run/?PROLIFIC_PID=6a02fc6e1186071261f2734f&STUDY_ID=6a230fc25d128c9d1b56061a&STUDY_ID=6a230fc25d128c9d1b56061a&SESSION_ID=6a26cc17d17ccd6b54b3fa2a?PROLIFIC_PID=6a02fc6e1186071261f2734f&SESSION_ID=6a26cc17d17ccd6b54b3fa2a?","en-US,en;q=0.9","6a02fc6e1186071261f2734f","6a230fc25d128c9d1b56061a","6a26cc17d17ccd6b54b3fa2a?","6a02fc6e1186071261f2734f","6a230fc25d128c9d1b56061a","6a26cc17d17ccd6b54b3fa2a?","30","[17,4,11,21,13,14,1,12,7,3,18,10,9,25,30,27,5,15,19,8,29,6,26,16,20,23,24,2,22,28]","[""U17"",""U4"",""U11"",""U21"",""P13"",""U14"",""P1"",""U12"",""P7"",""U3"",""P18"",""U10"",""P9"",""U25"",""U30"",""U27"",""P5"",""P15"",""P19"",""P8"",""P29"",""U6"",""P26"",""P16"",""U20"",""U23"",""P24"",""U2"",""U22"",""U28""]","[""P17"",""P4"",""P11"",""P21"",""U13"",""P14"",""U1"",""P12"",""U7"",""P3"",""U18"",""P10"",""U9"",""P25"",""P30"",""P27"",""U5"",""U15"",""U19"",""U8"",""U29"",""P6"",""U26"",""U16"",""P20"",""P23"",""U24"",""P2"",""P22"",""P28""]","5","5","0","0","0","0","","null","[""library_v1.mp4""]","null","demo_video","","","","","","","1","demo1","library_v1.mp4","library","Demo","[9.703902,12.615676,14.191425,15.07951]","4","","","","","","","","","","","","","","","","","",""
"","","","","","call-function","10","2.0.0","111162","66","1","2026-06-08 14:05:25","segmentation_norming_randomized_order_maxrun_attention_v4","81.99.50.76","Mozilla/5.0 (Windows NT 10.0; Win64; x64) AppleWebKit/537.36 (KHTML, like Gecko) Chrome/148.0.0.0 Safari/537.36","WebKit","Chrome","148.0.0.0","Windows","10.0","https://uencdihehs.cognition.run/?PROLIFIC_PID=6a02fc6e1186071261f2734f&STUDY_ID=6a230fc25d128c9d1b56061a&STUDY_ID=6a230fc25d128c9d1b56061a&SESSION_ID=6a26cc17d17ccd6b54b3fa2a?PROLIFIC_PID=6a02fc6e1186071261f2734f&SESSION_ID=6a26cc17d17ccd6b54b3fa2a?","en-US,en;q=0.9","6a02fc6e1186071261f2734f","6a230fc25d128c9d1b56061a","6a26cc17d17ccd6b54b3fa2a?","6a02fc6e1186071261f2734f","6a230fc25d128c9d1b56061a","6a26cc17d17ccd6b54b3fa2a?","30","[17,4,11,21,13,14,1,12,7,3,18,10,9,25,30,27,5,15,19,8,29,6,26,16,20,23,24,2,22,28]","[""U17"",""U4"",""U11"",""U21"",""P13"",""U14"",""P1"",""U12"",""P7"",""U3"",""P18"",""U10"",""P9"",""U25"",""U30"",""U27"",""P5"",""P15"",""P19"",""P8"",""P29"",""U6"",""P26"",""P16"",""U20"",""U23"",""P24"",""U2"",""U22"",""U28""]","[""P17"",""P4"",""P11"",""P21"",""U13"",""P14"",""U1"",""P12"",""U7"",""P3"",""U18"",""P10"",""U9"",""P25"",""P30"",""P27"",""U5"",""U15"",""U19"",""U8"",""U29"",""P6"",""U26"",""U16"",""P20"",""P23"",""U24"",""P2"",""P22"",""P28""]","5","5","0","0","0","0","","","","","","","","","","","","","","","","","","","","","","","","","","","","","","","","","","","",""
"","","","","","html-button-response","11","2.0.0","118216","66","1","2026-06-08 14:05:25","segmentation_norming_randomized_order_maxrun_attention_v4","81.99.50.76","Mozilla/5.0 (Windows NT 10.0; Win64; x64) AppleWebKit/537.36 (KHTML, like Gecko) Chrome/148.0.0.0 Safari/537.36","WebKit","Chrome","148.0.0.0","Windows","10.0","https://uencdihehs.cognition.run/?PROLIFIC_PID=6a02fc6e1186071261f2734f&STUDY_ID=6a230fc25d128c9d1b56061a&STUDY_ID=6a230fc25d128c9d1b56061a&SESSION_ID=6a26cc17d17ccd6b54b3fa2a?PROLIFIC_PID=6a02fc6e1186071261f2734f&SESSION_ID=6a26cc17d17ccd6b54b3fa2a?","en-US,en;q=0.9","6a02fc6e1186071261f2734f","6a230fc25d128c9d1b56061a","6a26cc17d17ccd6b54b3fa2a?","6a02fc6e1186071261f2734f","6a230fc25d128c9d1b56061a","6a26cc17d17ccd6b54b3fa2a?","30","[17,4,11,21,13,14,1,12,7,3,18,10,9,25,30,27,5,15,19,8,29,6,26,16,20,23,24,2,22,28]","[""U17"",""U4"",""U11"",""U21"",""P13"",""U14"",""P1"",""U12"",""P7"",""U3"",""P18"",""U10"",""P9"",""U25"",""U30"",""U27"",""P5"",""P15"",""P19"",""P8"",""P29"",""U6"",""P26"",""P16"",""U20"",""U23"",""P24"",""U2"",""U22"",""U28""]","[""P17"",""P4"",""P11"",""P21"",""U13"",""P14"",""U1"",""P12"",""U7"",""P3"",""U18"",""P10"",""U9"",""P25"",""P30"",""P27"",""U5"",""U15"",""U19"",""U8"",""U29"",""P6"",""U26"",""U16"",""P20"",""P23"",""U24"",""P2"",""P22"",""P28""]","5","5","0","0","0","0","","7054","Usually people tend to press the button more times than you did.<br><br>As a reminder, press the <strong>SPACE BAR</strong> whenever one <strong>smallest meaningful unit</strong> of activity ends and another begins.<br><br>Let's try another demo trial.<br><br>","0","demo_feedback","","","","","","","","","","","","","","","","","","","","","","","","","","","","","","",""
"","","","","","video-keyboard-response","12","2.0.0","153741","66","1","2026-06-08 14:05:25","segmentation_norming_randomized_order_maxrun_attention_v4","81.99.50.76","Mozilla/5.0 (Windows NT 10.0; Win64; x64) AppleWebKit/537.36 (KHTML, like Gecko) Chrome/148.0.0.0 Safari/537.36","WebKit","Chrome","148.0.0.0","Windows","10.0","https://uencdihehs.cognition.run/?PROLIFIC_PID=6a02fc6e1186071261f2734f&STUDY_ID=6a230fc25d128c9d1b56061a&STUDY_ID=6a230fc25d128c9d1b56061a&SESSION_ID=6a26cc17d17ccd6b54b3fa2a?PROLIFIC_PID=6a02fc6e1186071261f2734f&SESSION_ID=6a26cc17d17ccd6b54b3fa2a?","en-US,en;q=0.9","6a02fc6e1186071261f2734f","6a230fc25d128c9d1b56061a","6a26cc17d17ccd6b54b3fa2a?","6a02fc6e1186071261f2734f","6a230fc25d128c9d1b56061a","6a26cc17d17ccd6b54b3fa2a?","30","[17,4,11,21,13,14,1,12,7,3,18,10,9,25,30,27,5,15,19,8,29,6,26,16,20,23,24,2,22,28]","[""U17"",""U4"",""U11"",""U21"",""P13"",""U14"",""P1"",""U12"",""P7"",""U3"",""P18"",""U10"",""P9"",""U25"",""U30"",""U27"",""P5"",""P15"",""P19"",""P8"",""P29"",""U6"",""P26"",""P16"",""U20"",""U23"",""P24"",""U2"",""U22"",""U28""]","[""P17"",""P4"",""P11"",""P21"",""U13"",""P14"",""U1"",""P12"",""U7"",""P3"",""U18"",""P10"",""U9"",""P25"",""P30"",""P27"",""U5"",""U15"",""U19"",""U8"",""U29"",""P6"",""U26"",""U16"",""P20"",""P23"",""U24"",""P2"",""P22"",""P28""]","5","5","0","0","0","0","","null","[""garden_v1.mp4""]","null","demo_video","","","","","","","2","demo2","garden_v1.mp4","garden","Demo","[1.547638,2.819416,3.771965,5.995554,8.787747,11.69955,13.523826,15.275416,18.243412,20.956151,22.763578,24.851659,26.571679,30.251895,33.524011]","15","","","","","","","","","","","","","","","","","",""
"","","","","","call-function","13","2.0.0","153741","66","1","2026-06-08 14:05:25","segmentation_norming_randomized_order_maxrun_attention_v4","81.99.50.76","Mozilla/5.0 (Windows NT 10.0; Win64; x64) AppleWebKit/537.36 (KHTML, like Gecko) Chrome/148.0.0.0 Safari/537.36","WebKit","Chrome","148.0.0.0","Windows","10.0","https://uencdihehs.cognition.run/?PROLIFIC_PID=6a02fc6e1186071261f2734f&STUDY_ID=6a230fc25d128c9d1b56061a&STUDY_ID=6a230fc25d128c9d1b56061a&SESSION_ID=6a26cc17d17ccd6b54b3fa2a?PROLIFIC_PID=6a02fc6e1186071261f2734f&SESSION_ID=6a26cc17d17ccd6b54b3fa2a?","en-US,en;q=0.9","6a02fc6e1186071261f2734f","6a230fc25d128c9d1b56061a","6a26cc17d17ccd6b54b3fa2a?","6a02fc6e1186071261f2734f","6a230fc25d128c9d1b56061a","6a26cc17d17ccd6b54b3fa2a?","30","[17,4,11,21,13,14,1,12,7,3,18,10,9,25,30,27,5,15,19,8,29,6,26,16,20,23,24,2,22,28]","[""U17"",""U4"",""U11"",""U21"",""P13"",""U14"",""P1"",""U12"",""P7"",""U3"",""P18"",""U10"",""P9"",""U25"",""U30"",""U27"",""P5"",""P15"",""P19"",""P8"",""P29"",""U6"",""P26"",""P16"",""U20"",""U23"",""P24"",""U2"",""U22"",""U28""]","[""P17"",""P4"",""P11"",""P21"",""U13"",""P14"",""U1"",""P12"",""U7"",""P3"",""U18"",""P10"",""U9"",""P25"",""P30"",""P27"",""U5"",""U15"",""U19"",""U8"",""U29"",""P6"",""U26"",""U16"",""P20"",""P23"",""U24"",""P2"",""P22"",""P28""]","5","5","0","0","0","0","","","","","","","","","","","","","","","","","","","","","","","","","","","","","","","","","","","",""
"","","","","","html-button-response","14","2.0.0","161418","66","1","2026-06-08 14:05:25","segmentation_norming_randomized_order_maxrun_attention_v4","81.99.50.76","Mozilla/5.0 (Windows NT 10.0; Win64; x64) AppleWebKit/537.36 (KHTML, like Gecko) Chrome/148.0.0.0 Safari/537.36","WebKit","Chrome","148.0.0.0","Windows","10.0","https://uencdihehs.cognition.run/?PROLIFIC_PID=6a02fc6e1186071261f2734f&STUDY_ID=6a230fc25d128c9d1b56061a&STUDY_ID=6a230fc25d128c9d1b56061a&SESSION_ID=6a26cc17d17ccd6b54b3fa2a?PROLIFIC_PID=6a02fc6e1186071261f2734f&SESSION_ID=6a26cc17d17ccd6b54b3fa2a?","en-US,en;q=0.9","6a02fc6e1186071261f2734f","6a230fc25d128c9d1b56061a","6a26cc17d17ccd6b54b3fa2a?","6a02fc6e1186071261f2734f","6a230fc25d128c9d1b56061a","6a26cc17d17ccd6b54b3fa2a?","30","[17,4,11,21,13,14,1,12,7,3,18,10,9,25,30,27,5,15,19,8,29,6,26,16,20,23,24,2,22,28]","[""U17"",""U4"",""U11"",""U21"",""P13"",""U14"",""P1"",""U12"",""P7"",""U3"",""P18"",""U10"",""P9"",""U25"",""U30"",""U27"",""P5"",""P15"",""P19"",""P8"",""P29"",""U6"",""P26"",""P16"",""U20"",""U23"",""P24"",""U2"",""U22"",""U28""]","[""P17"",""P4"",""P11"",""P21"",""U13"",""P14"",""U1"",""P12"",""U7"",""P3"",""U18"",""P10"",""U9"",""P25"",""P30"",""P27"",""U5"",""U15"",""U19"",""U8"",""U29"",""P6"",""U26"",""U16"",""P20"",""P23"",""U24"",""P2"",""P22"",""P28""]","5","5","0","0","0","0","","7676","Great! Hopefully you got an idea of what a meaningful unit is.<br><br>Remember that there is no right or wrong answer.<br><br>We just want to know which parts of the activity seem natural and meaningful to you.<br><br>Now the main experiment starts.<br><br>For each clip, while watching, remember to press the SPACE BAR whenever one <strong>smallest meaningful unit</strong> of activity ends and another begins.<br><br>","0","demo_feedback","","","","","","","","","","","","","","","","","","","","","","","","","","","","","","",""
"true","false","[]","[]","[]","preload","15","2.0.0","169714","66","1","2026-06-08 14:05:25","segmentation_norming_randomized_order_maxrun_attention_v4","81.99.50.76","Mozilla/5.0 (Windows NT 10.0; Win64; x64) AppleWebKit/537.36 (KHTML, like Gecko) Chrome/148.0.0.0 Safari/537.36","WebKit","Chrome","148.0.0.0","Windows","10.0","https://uencdihehs.cognition.run/?PROLIFIC_PID=6a02fc6e1186071261f2734f&STUDY_ID=6a230fc25d128c9d1b56061a&STUDY_ID=6a230fc25d128c9d1b56061a&SESSION_ID=6a26cc17d17ccd6b54b3fa2a?PROLIFIC_PID=6a02fc6e1186071261f2734f&SESSION_ID=6a26cc17d17ccd6b54b3fa2a?","en-US,en;q=0.9","6a02fc6e1186071261f2734f","6a230fc25d128c9d1b56061a","6a26cc17d17ccd6b54b3fa2a?","6a02fc6e1186071261f2734f","6a230fc25d128c9d1b56061a","6a26cc17d17ccd6b54b3fa2a?","30","[17,4,11,21,13,14,1,12,7,3,18,10,9,25,30,27,5,15,19,8,29,6,26,16,20,23,24,2,22,28]","[""U17"",""U4"",""U11"",""U21"",""P13"",""U14"",""P1"",""U12"",""P7"",""U3"",""P18"",""U10"",""P9"",""U25"",""U30"",""U27"",""P5"",""P15"",""P19"",""P8"",""P29"",""U6"",""P26"",""P16"",""U20"",""U23"",""P24"",""U2"",""U22"",""U28""]","[""P17"",""P4"",""P11"",""P21"",""U13"",""P14"",""U1"",""P12"",""U7"",""P3"",""U18"",""P10"",""U9"",""P25"",""P30"",""P27"",""U5"",""U15"",""U19"",""U8"",""U29"",""P6"",""U26"",""U16"",""P20"",""P23"",""U24"",""P2"",""P22"",""P28""]","5","5","0","0","0","0","","","","","","","","","","","","","","","","","","","","","","","","","","","","","","","","","","","",""
"","","","","","video-keyboard-response","16","2.0.0","208210","66","1","2026-06-08 14:05:25","segmentation_norming_randomized_order_maxrun_attention_v4","81.99.50.76","Mozilla/5.0 (Windows NT 10.0; Win64; x64) AppleWebKit/537.36 (KHTML, like Gecko) Chrome/148.0.0.0 Safari/537.36","WebKit","Chrome","148.0.0.0","Windows","10.0","https://uencdihehs.cognition.run/?PROLIFIC_PID=6a02fc6e1186071261f2734f&STUDY_ID=6a230fc25d128c9d1b56061a&STUDY_ID=6a230fc25d128c9d1b56061a&SESSION_ID=6a26cc17d17ccd6b54b3fa2a?PROLIFIC_PID=6a02fc6e1186071261f2734f&SESSION_ID=6a26cc17d17ccd6b54b3fa2a?","en-US,en;q=0.9","6a02fc6e1186071261f2734f","6a230fc25d128c9d1b56061a","6a26cc17d17ccd6b54b3fa2a?","6a02fc6e1186071261f2734f","6a230fc25d128c9d1b56061a","6a26cc17d17ccd6b54b3fa2a?","30","[17,4,11,21,13,14,1,12,7,3,18,10,9,25,30,27,5,15,19,8,29,6,26,16,20,23,24,2,22,28]","[""U17"",""U4"",""U11"",""U21"",""P13"",""U14"",""P1"",""U12"",""P7"",""U3"",""P18"",""U10"",""P9"",""U25"",""U30"",""U27"",""P5"",""P15"",""P19"",""P8"",""P29"",""U6"",""P26"",""P16"",""U20"",""U23"",""P24"",""U2"",""U22"",""U28""]","[""P17"",""P4"",""P11"",""P21"",""U13"",""P14"",""U1"",""P12"",""U7"",""P3"",""U18"",""P10"",""U9"",""P25"",""P30"",""P27"",""U5"",""U15"",""U19"",""U8"",""U29"",""P6"",""U26"",""U16"",""P20"",""P23"",""U24"",""P2"",""P22"",""P28""]","5","5","0","0","0","0","","null","[""music_v2.mp4""]","null","segmentation_video","","","","","","","","","music_v2.mp4","music","Unpredictable","[0.949312,3.188492,10.492566,13.892868,16.22932,18.861343,24.020977,27.300714,31.548953,36.101108]","10","","U17","17","1","1","2.23918","false","false","false","","false","0","0","false","false","false","false",""
"","","","","","survey-multi-choice","19","2.0.0","214768","66","1","2026-06-08 14:05:25","segmentation_norming_randomized_order_maxrun_attention_v4","81.99.50.76","Mozilla/5.0 (Windows NT 10.0; Win64; x64) AppleWebKit/537.36 (KHTML, like Gecko) Chrome/148.0.0.0 Safari/537.36","WebKit","Chrome","148.0.0.0","Windows","10.0","https://uencdihehs.cognition.run/?PROLIFIC_PID=6a02fc6e1186071261f2734f&STUDY_ID=6a230fc25d128c9d1b56061a&STUDY_ID=6a230fc25d128c9d1b56061a&SESSION_ID=6a26cc17d17ccd6b54b3fa2a?PROLIFIC_PID=6a02fc6e1186071261f2734f&SESSION_ID=6a26cc17d17ccd6b54b3fa2a?","en-US,en;q=0.9","6a02fc6e1186071261f2734f","6a230fc25d128c9d1b56061a","6a26cc17d17ccd6b54b3fa2a?","6a02fc6e1186071261f2734f","6a230fc25d128c9d1b56061a","6a26cc17d17ccd6b54b3fa2a?","30","[17,4,11,21,13,14,1,12,7,3,18,10,9,25,30,27,5,15,19,8,29,6,26,16,20,23,24,2,22,28]","[""U17"",""U4"",""U11"",""U21"",""P13"",""U14"",""P1"",""U12"",""P7"",""U3"",""P18"",""U10"",""P9"",""U25"",""U30"",""U27"",""P5"",""P15"",""P19"",""P8"",""P29"",""U6"",""P26"",""P16"",""U20"",""U23"",""P24"",""U2"",""U22"",""U28""]","[""P17"",""P4"",""P11"",""P21"",""U13"",""P14"",""U1"",""P12"",""U7"",""P3"",""U18"",""P10"",""U9"",""P25"",""P30"",""P27"",""U5"",""U15"",""U19"",""U8"",""U29"",""P6"",""U26"",""U16"",""P20"",""P23"",""U24"",""P2"",""P22"",""P28""]","5","5","0","0","0","0","","6556","","{""confidence_rating"":""Moderately confident""}","confidence_question","[0]","","","","","","","","","music","Unpredictable","","","","U17","17","1","1","","","","","","","","","","","","","Moderately confident"
"","","","","","video-keyboard-response","20","2.0.0","249990","66","1","2026-06-08 14:05:25","segmentation_norming_randomized_order_maxrun_attention_v4","81.99.50.76","Mozilla/5.0 (Windows NT 10.0; Win64; x64) AppleWebKit/537.36 (KHTML, like Gecko) Chrome/148.0.0.0 Safari/537.36","WebKit","Chrome","148.0.0.0","Windows","10.0","https://uencdihehs.cognition.run/?PROLIFIC_PID=6a02fc6e1186071261f2734f&STUDY_ID=6a230fc25d128c9d1b56061a&STUDY_ID=6a230fc25d128c9d1b56061a&SESSION_ID=6a26cc17d17ccd6b54b3fa2a?PROLIFIC_PID=6a02fc6e1186071261f2734f&SESSION_ID=6a26cc17d17ccd6b54b3fa2a?","en-US,en;q=0.9","6a02fc6e1186071261f2734f","6a230fc25d128c9d1b56061a","6a26cc17d17ccd6b54b3fa2a?","6a02fc6e1186071261f2734f","6a230fc25d128c9d1b56061a","6a26cc17d17ccd6b54b3fa2a?","30","[17,4,11,21,13,14,1,12,7,3,18,10,9,25,30,27,5,15,19,8,29,6,26,16,20,23,24,2,22,28]","[""U17"",""U4"",""U11"",""U21"",""P13"",""U14"",""P1"",""U12"",""P7"",""U3"",""P18"",""U10"",""P9"",""U25"",""U30"",""U27"",""P5"",""P15"",""P19"",""P8"",""P29"",""U6"",""P26"",""P16"",""U20"",""U23"",""P24"",""U2"",""U22"",""U28""]","[""P17"",""P4"",""P11"",""P21"",""U13"",""P14"",""U1"",""P12"",""U7"",""P3"",""U18"",""P10"",""U9"",""P25"",""P30"",""P27"",""U5"",""U15"",""U19"",""U8"",""U29"",""P6"",""U26"",""U16"",""P20"",""P23"",""U24"",""P2"",""P22"",""P28""]","5","5","0","0","0","0","","null","[""bathroom_v2.mp4""]","null","segmentation_video","","","","","","","","","bathroom_v2.mp4","bathroom","Unpredictable","[1.524847,2.916594,4.340948,7.077322,10.116592,11.813071,14.668693,16.228922,17.932541,20.756779,24.82098,27.101014,29.269114,31.164659]","14","","U4","4","1","2","1.3917469999999998","false","false","false","","false","0","0","false","false","false","false",""
"","","","","","survey-multi-choice","23","2.0.0","253233","66","1","2026-06-08 14:05:25","segmentation_norming_randomized_order_maxrun_attention_v4","81.99.50.76","Mozilla/5.0 (Windows NT 10.0; Win64; x64) AppleWebKit/537.36 (KHTML, like Gecko) Chrome/148.0.0.0 Safari/537.36","WebKit","Chrome","148.0.0.0","Windows","10.0","https://uencdihehs.cognition.run/?PROLIFIC_PID=6a02fc6e1186071261f2734f&STUDY_ID=6a230fc25d128c9d1b56061a&STUDY_ID=6a230fc25d128c9d1b56061a&SESSION_ID=6a26cc17d17ccd6b54b3fa2a?PROLIFIC_PID=6a02fc6e1186071261f2734f&SESSION_ID=6a26cc17d17ccd6b54b3fa2a?","en-US,en;q=0.9","6a02fc6e1186071261f2734f","6a230fc25d128c9d1b56061a","6a26cc17d17ccd6b54b3fa2a?","6a02fc6e1186071261f2734f","6a230fc25d128c9d1b56061a","6a26cc17d17ccd6b54b3fa2a?","30","[17,4,11,21,13,14,1,12,7,3,18,10,9,25,30,27,5,15,19,8,29,6,26,16,20,23,24,2,22,28]","[""U17"",""U4"",""U11"",""U21"",""P13"",""U14"",""P1"",""U12"",""P7"",""U3"",""P18"",""U10"",""P9"",""U25"",""U30"",""U27"",""P5"",""P15"",""P19"",""P8"",""P29"",""U6"",""P26"",""P16"",""U20"",""U23"",""P24"",""U2"",""U22"",""U28""]","[""P17"",""P4"",""P11"",""P21"",""U13"",""P14"",""U1"",""P12"",""U7"",""P3"",""U18"",""P10"",""U9"",""P25"",""P30"",""P27"",""U5"",""U15"",""U19"",""U8"",""U29"",""P6"",""U26"",""U16"",""P20"",""P23"",""U24"",""P2"",""P22"",""P28""]","5","5","0","0","0","0","","3242","","{""confidence_rating"":""Moderately confident""}","confidence_question","[0]","","","","","","","","","bathroom","Unpredictable","","","","U4","4","1","2","","","","","","","","","","","","","Moderately confident"
"","","","","","video-keyboard-response","24","2.0.0","284329","66","1","2026-06-08 14:05:25","segmentation_norming_randomized_order_maxrun_attention_v4","81.99.50.76","Mozilla/5.0 (Windows NT 10.0; Win64; x64) AppleWebKit/537.36 (KHTML, like Gecko) Chrome/148.0.0.0 Safari/537.36","WebKit","Chrome","148.0.0.0","Windows","10.0","https://uencdihehs.cognition.run/?PROLIFIC_PID=6a02fc6e1186071261f2734f&STUDY_ID=6a230fc25d128c9d1b56061a&STUDY_ID=6a230fc25d128c9d1b56061a&SESSION_ID=6a26cc17d17ccd6b54b3fa2a?PROLIFIC_PID=6a02fc6e1186071261f2734f&SESSION_ID=6a26cc17d17ccd6b54b3fa2a?","en-US,en;q=0.9","6a02fc6e1186071261f2734f","6a230fc25d128c9d1b56061a","6a26cc17d17ccd6b54b3fa2a?","6a02fc6e1186071261f2734f","6a230fc25d128c9d1b56061a","6a26cc17d17ccd6b54b3fa2a?","30","[17,4,11,21,13,14,1,12,7,3,18,10,9,25,30,27,5,15,19,8,29,6,26,16,20,23,24,2,22,28]","[""U17"",""U4"",""U11"",""U21"",""P13"",""U14"",""P1"",""U12"",""P7"",""U3"",""P18"",""U10"",""P9"",""U25"",""U30"",""U27"",""P5"",""P15"",""P19"",""P8"",""P29"",""U6"",""P26"",""P16"",""U20"",""U23"",""P24"",""U2"",""U22"",""U28""]","[""P17"",""P4"",""P11"",""P21"",""U13"",""P14"",""U1"",""P12"",""U7"",""P3"",""U18"",""P10"",""U9"",""P25"",""P30"",""P27"",""U5"",""U15"",""U19"",""U8"",""U29"",""P6"",""U26"",""U16"",""P20"",""P23"",""U24"",""P2"",""P22"",""P28""]","5","5","0","0","0","0","","null","[""fireplace_v2.mp4""]","null","segmentation_video","","","","","","","","","fireplace_v2.mp4","fireplace","Unpredictable","[1.745575,5.952763,11.001605,13.944452,17.001334,20.992911,28.169142]","7","","U11","11","1","3","2.9428470000000004","false","false","false","","false","0","0","false","false","false","false",""
"","","","","","survey-multi-choice","27","2.0.0","287068","66","1","2026-06-08 14:05:25","segmentation_norming_randomized_order_maxrun_attention_v4","81.99.50.76","Mozilla/5.0 (Windows NT 10.0; Win64; x64) AppleWebKit/537.36 (KHTML, like Gecko) Chrome/148.0.0.0 Safari/537.36","WebKit","Chrome","148.0.0.0","Windows","10.0","https://uencdihehs.cognition.run/?PROLIFIC_PID=6a02fc6e1186071261f2734f&STUDY_ID=6a230fc25d128c9d1b56061a&STUDY_ID=6a230fc25d128c9d1b56061a&SESSION_ID=6a26cc17d17ccd6b54b3fa2a?PROLIFIC_PID=6a02fc6e1186071261f2734f&SESSION_ID=6a26cc17d17ccd6b54b3fa2a?","en-US,en;q=0.9","6a02fc6e1186071261f2734f","6a230fc25d128c9d1b56061a","6a26cc17d17ccd6b54b3fa2a?","6a02fc6e1186071261f2734f","6a230fc25d128c9d1b56061a","6a26cc17d17ccd6b54b3fa2a?","30","[17,4,11,21,13,14,1,12,7,3,18,10,9,25,30,27,5,15,19,8,29,6,26,16,20,23,24,2,22,28]","[""U17"",""U4"",""U11"",""U21"",""P13"",""U14"",""P1"",""U12"",""P7"",""U3"",""P18"",""U10"",""P9"",""U25"",""U30"",""U27"",""P5"",""P15"",""P19"",""P8"",""P29"",""U6"",""P26"",""P16"",""U20"",""U23"",""P24"",""U2"",""U22"",""U28""]","[""P17"",""P4"",""P11"",""P21"",""U13"",""P14"",""U1"",""P12"",""U7"",""P3"",""U18"",""P10"",""U9"",""P25"",""P30"",""P27"",""U5"",""U15"",""U19"",""U8"",""U29"",""P6"",""U26"",""U16"",""P20"",""P23"",""U24"",""P2"",""P22"",""P28""]","5","5","0","0","0","0","","2737","","{""confidence_rating"":""Moderately confident""}","confidence_question","[0]","","","","","","","","","fireplace","Unpredictable","","","","U11","11","1","3","","","","","","","","","","","","","Moderately confident"
"","","","","","video-keyboard-response","28","2.0.0","331210","66","1","2026-06-08 14:05:25","segmentation_norming_randomized_order_maxrun_attention_v4","81.99.50.76","Mozilla/5.0 (Windows NT 10.0; Win64; x64) AppleWebKit/537.36 (KHTML, like Gecko) Chrome/148.0.0.0 Safari/537.36","WebKit","Chrome","148.0.0.0","Windows","10.0","https://uencdihehs.cognition.run/?PROLIFIC_PID=6a02fc6e1186071261f2734f&STUDY_ID=6a230fc25d128c9d1b56061a&STUDY_ID=6a230fc25d128c9d1b56061a&SESSION_ID=6a26cc17d17ccd6b54b3fa2a?PROLIFIC_PID=6a02fc6e1186071261f2734f&SESSION_ID=6a26cc17d17ccd6b54b3fa2a?","en-US,en;q=0.9","6a02fc6e1186071261f2734f","6a230fc25d128c9d1b56061a","6a26cc17d17ccd6b54b3fa2a?","6a02fc6e1186071261f2734f","6a230fc25d128c9d1b56061a","6a26cc17d17ccd6b54b3fa2a?","30","[17,4,11,21,13,14,1,12,7,3,18,10,9,25,30,27,5,15,19,8,29,6,26,16,20,23,24,2,22,28]","[""U17"",""U4"",""U11"",""U21"",""P13"",""U14"",""P1"",""U12"",""P7"",""U3"",""P18"",""U10"",""P9"",""U25"",""U30"",""U27"",""P5"",""P15"",""P19"",""P8"",""P29"",""U6"",""P26"",""P16"",""U20"",""U23"",""P24"",""U2"",""U22"",""U28""]","[""P17"",""P4"",""P11"",""P21"",""U13"",""P14"",""U1"",""P12"",""U7"",""P3"",""U18"",""P10"",""U9"",""P25"",""P30"",""P27"",""U5"",""U15"",""U19"",""U8"",""U29"",""P6"",""U26"",""U16"",""P20"",""P23"",""U24"",""P2"",""P22"",""P28""]","5","5","0","0","0","0","","null","[""printer_v2.mp4""]","null","segmentation_video","","","","","","","","","printer_v2.mp4","printer","Unpredictable","[2.284385,5.621223,7.812686,11.996829,16.708913,20.892806,26.412595,34.061366,38.388647,41.316842,43.412721]","11","","U21","21","1","4","2.0958789999999965","false","false","false","","false","0","0","false","false","false","false",""
"","","","","","survey-multi-choice","31","2.0.0","333771","66","1","2026-06-08 14:05:25","segmentation_norming_randomized_order_maxrun_attention_v4","81.99.50.76","Mozilla/5.0 (Windows NT 10.0; Win64; x64) AppleWebKit/537.36 (KHTML, like Gecko) Chrome/148.0.0.0 Safari/537.36","WebKit","Chrome","148.0.0.0","Windows","10.0","https://uencdihehs.cognition.run/?PROLIFIC_PID=6a02fc6e1186071261f2734f&STUDY_ID=6a230fc25d128c9d1b56061a&STUDY_ID=6a230fc25d128c9d1b56061a&SESSION_ID=6a26cc17d17ccd6b54b3fa2a?PROLIFIC_PID=6a02fc6e1186071261f2734f&SESSION_ID=6a26cc17d17ccd6b54b3fa2a?","en-US,en;q=0.9","6a02fc6e1186071261f2734f","6a230fc25d128c9d1b56061a","6a26cc17d17ccd6b54b3fa2a?","6a02fc6e1186071261f2734f","6a230fc25d128c9d1b56061a","6a26cc17d17ccd6b54b3fa2a?","30","[17,4,11,21,13,14,1,12,7,3,18,10,9,25,30,27,5,15,19,8,29,6,26,16,20,23,24,2,22,28]","[""U17"",""U4"",""U11"",""U21"",""P13"",""U14"",""P1"",""U12"",""P7"",""U3"",""P18"",""U10"",""P9"",""U25"",""U30"",""U27"",""P5"",""P15"",""P19"",""P8"",""P29"",""U6"",""P26"",""P16"",""U20"",""U23"",""P24"",""U2"",""U22"",""U28""]","[""P17"",""P4"",""P11"",""P21"",""U13"",""P14"",""U1"",""P12"",""U7"",""P3"",""U18"",""P10"",""U9"",""P25"",""P30"",""P27"",""U5"",""U15"",""U19"",""U8"",""U29"",""P6"",""U26"",""U16"",""P20"",""P23"",""U24"",""P2"",""P22"",""P28""]","5","5","0","0","0","0","","2560","","{""confidence_rating"":""Neutral""}","confidence_question","[0]","","","","","","","","","printer","Unpredictable","","","","U21","21","1","4","","","","","","","","","","","","","Neutral"
"","","","","","video-keyboard-response","32","2.0.0","363190","66","1","2026-06-08 14:05:25","segmentation_norming_randomized_order_maxrun_attention_v4","81.99.50.76","Mozilla/5.0 (Windows NT 10.0; Win64; x64) AppleWebKit/537.36 (KHTML, like Gecko) Chrome/148.0.0.0 Safari/537.36","WebKit","Chrome","148.0.0.0","Windows","10.0","https://uencdihehs.cognition.run/?PROLIFIC_PID=6a02fc6e1186071261f2734f&STUDY_ID=6a230fc25d128c9d1b56061a&STUDY_ID=6a230fc25d128c9d1b56061a&SESSION_ID=6a26cc17d17ccd6b54b3fa2a?PROLIFIC_PID=6a02fc6e1186071261f2734f&SESSION_ID=6a26cc17d17ccd6b54b3fa2a?","en-US,en;q=0.9","6a02fc6e1186071261f2734f","6a230fc25d128c9d1b56061a","6a26cc17d17ccd6b54b3fa2a?","6a02fc6e1186071261f2734f","6a230fc25d128c9d1b56061a","6a26cc17d17ccd6b54b3fa2a?","30","[17,4,11,21,13,14,1,12,7,3,18,10,9,25,30,27,5,15,19,8,29,6,26,16,20,23,24,2,22,28]","[""U17"",""U4"",""U11"",""U21"",""P13"",""U14"",""P1"",""U12"",""P7"",""U3"",""P18"",""U10"",""P9"",""U25"",""U30"",""U27"",""P5"",""P15"",""P19"",""P8"",""P29"",""U6"",""P26"",""P16"",""U20"",""U23"",""P24"",""U2"",""U22"",""U28""]","[""P17"",""P4"",""P11"",""P21"",""U13"",""P14"",""U1"",""P12"",""U7"",""P3"",""U18"",""P10"",""U9"",""P25"",""P30"",""P27"",""U5"",""U15"",""U19"",""U8"",""U29"",""P6"",""U26"",""U16"",""P20"",""P23"",""U24"",""P2"",""P22"",""P28""]","5","5","0","0","0","0","","null","[""gym_v1.mp4""]","null","segmentation_video","","","","","","","","","gym_v1.mp4","gym","Predictable","[1.340864,2.364657,5.068599,8.556852,12.204749,16.204583,19.908683,22.548912,25.532747]","9","","P13","13","1","5","1.0237929999999997","false","false","false","","false","0","0","false","false","false","false",""
"","","","","","survey-multi-choice","35","2.0.0","367006","66","1","2026-06-08 14:05:25","segmentation_norming_randomized_order_maxrun_attention_v4","81.99.50.76","Mozilla/5.0 (Windows NT 10.0; Win64; x64) AppleWebKit/537.36 (KHTML, like Gecko) Chrome/148.0.0.0 Safari/537.36","WebKit","Chrome","148.0.0.0","Windows","10.0","https://uencdihehs.cognition.run/?PROLIFIC_PID=6a02fc6e1186071261f2734f&STUDY_ID=6a230fc25d128c9d1b56061a&STUDY_ID=6a230fc25d128c9d1b56061a&SESSION_ID=6a26cc17d17ccd6b54b3fa2a?PROLIFIC_PID=6a02fc6e1186071261f2734f&SESSION_ID=6a26cc17d17ccd6b54b3fa2a?","en-US,en;q=0.9","6a02fc6e1186071261f2734f","6a230fc25d128c9d1b56061a","6a26cc17d17ccd6b54b3fa2a?","6a02fc6e1186071261f2734f","6a230fc25d128c9d1b56061a","6a26cc17d17ccd6b54b3fa2a?","30","[17,4,11,21,13,14,1,12,7,3,18,10,9,25,30,27,5,15,19,8,29,6,26,16,20,23,24,2,22,28]","[""U17"",""U4"",""U11"",""U21"",""P13"",""U14"",""P1"",""U12"",""P7"",""U3"",""P18"",""U10"",""P9"",""U25"",""U30"",""U27"",""P5"",""P15"",""P19"",""P8"",""P29"",""U6"",""P26"",""P16"",""U20"",""U23"",""P24"",""U2"",""U22"",""U28""]","[""P17"",""P4"",""P11"",""P21"",""U13"",""P14"",""U1"",""P12"",""U7"",""P3"",""U18"",""P10"",""U9"",""P25"",""P30"",""P27"",""U5"",""U15"",""U19"",""U8"",""U29"",""P6"",""U26"",""U16"",""P20"",""P23"",""U24"",""P2"",""P22"",""P28""]","5","5","0","0","0","0","","3814","","{""confidence_rating"":""Moderately confident""}","confidence_question","[0]","","","","","","","","","gym","Predictable","","","","P13","13","1","5","","","","","","","","","","","","","Moderately confident"
"","","","","","video-keyboard-response","36","2.0.0","396630","66","1","2026-06-08 14:05:25","segmentation_norming_randomized_order_maxrun_attention_v4","81.99.50.76","Mozilla/5.0 (Windows NT 10.0; Win64; x64) AppleWebKit/537.36 (KHTML, like Gecko) Chrome/148.0.0.0 Safari/537.36","WebKit","Chrome","148.0.0.0","Windows","10.0","https://uencdihehs.cognition.run/?PROLIFIC_PID=6a02fc6e1186071261f2734f&STUDY_ID=6a230fc25d128c9d1b56061a&STUDY_ID=6a230fc25d128c9d1b56061a&SESSION_ID=6a26cc17d17ccd6b54b3fa2a?PROLIFIC_PID=6a02fc6e1186071261f2734f&SESSION_ID=6a26cc17d17ccd6b54b3fa2a?","en-US,en;q=0.9","6a02fc6e1186071261f2734f","6a230fc25d128c9d1b56061a","6a26cc17d17ccd6b54b3fa2a?","6a02fc6e1186071261f2734f","6a230fc25d128c9d1b56061a","6a26cc17d17ccd6b54b3fa2a?","30","[17,4,11,21,13,14,1,12,7,3,18,10,9,25,30,27,5,15,19,8,29,6,26,16,20,23,24,2,22,28]","[""U17"",""U4"",""U11"",""U21"",""P13"",""U14"",""P1"",""U12"",""P7"",""U3"",""P18"",""U10"",""P9"",""U25"",""U30"",""U27"",""P5"",""P15"",""P19"",""P8"",""P29"",""U6"",""P26"",""P16"",""U20"",""U23"",""P24"",""U2"",""U22"",""U28""]","[""P17"",""P4"",""P11"",""P21"",""U13"",""P14"",""U1"",""P12"",""U7"",""P3"",""U18"",""P10"",""U9"",""P25"",""P30"",""P27"",""U5"",""U15"",""U19"",""U8"",""U29"",""P6"",""U26"",""U16"",""P20"",""P23"",""U24"",""P2"",""P22"",""P28""]","5","5","0","0","0","0","","null","[""lamp_v2.mp4""]","null","segmentation_video","","","","","","","","","lamp_v2.mp4","lamp","Unpredictable","[1.464385,4.688582,7.832746,14.064781,17.632965,23.640842,27.84077]","7","","U14","14","1","6","3.144164","false","false","false","","false","0","0","false","false","false","false",""
"","","","","","survey-multi-choice","39","2.0.0","399148","66","1","2026-06-08 14:05:25","segmentation_norming_randomized_order_maxrun_attention_v4","81.99.50.76","Mozilla/5.0 (Windows NT 10.0; Win64; x64) AppleWebKit/537.36 (KHTML, like Gecko) Chrome/148.0.0.0 Safari/537.36","WebKit","Chrome","148.0.0.0","Windows","10.0","https://uencdihehs.cognition.run/?PROLIFIC_PID=6a02fc6e1186071261f2734f&STUDY_ID=6a230fc25d128c9d1b56061a&STUDY_ID=6a230fc25d128c9d1b56061a&SESSION_ID=6a26cc17d17ccd6b54b3fa2a?PROLIFIC_PID=6a02fc6e1186071261f2734f&SESSION_ID=6a26cc17d17ccd6b54b3fa2a?","en-US,en;q=0.9","6a02fc6e1186071261f2734f","6a230fc25d128c9d1b56061a","6a26cc17d17ccd6b54b3fa2a?","6a02fc6e1186071261f2734f","6a230fc25d128c9d1b56061a","6a26cc17d17ccd6b54b3fa2a?","30","[17,4,11,21,13,14,1,12,7,3,18,10,9,25,30,27,5,15,19,8,29,6,26,16,20,23,24,2,22,28]","[""U17"",""U4"",""U11"",""U21"",""P13"",""U14"",""P1"",""U12"",""P7"",""U3"",""P18"",""U10"",""P9"",""U25"",""U30"",""U27"",""P5"",""P15"",""P19"",""P8"",""P29"",""U6"",""P26"",""P16"",""U20"",""U23"",""P24"",""U2"",""U22"",""U28""]","[""P17"",""P4"",""P11"",""P21"",""U13"",""P14"",""U1"",""P12"",""U7"",""P3"",""U18"",""P10"",""U9"",""P25"",""P30"",""P27"",""U5"",""U15"",""U19"",""U8"",""U29"",""P6"",""U26"",""U16"",""P20"",""P23"",""U24"",""P2"",""P22"",""P28""]","5","5","0","0","0","0","","2517","","{""confidence_rating"":""Moderately confident""}","confidence_question","[0]","","","","","","","","","lamp","Unpredictable","","","","U14","14","1","6","","","","","","","","","","","","","Moderately confident"
"","","","","","video-keyboard-response","40","2.0.0","428010","66","1","2026-06-08 14:05:25","segmentation_norming_randomized_order_maxrun_attention_v4","81.99.50.76","Mozilla/5.0 (Windows NT 10.0; Win64; x64) AppleWebKit/537.36 (KHTML, like Gecko) Chrome/148.0.0.0 Safari/537.36","WebKit","Chrome","148.0.0.0","Windows","10.0","https://uencdihehs.cognition.run/?PROLIFIC_PID=6a02fc6e1186071261f2734f&STUDY_ID=6a230fc25d128c9d1b56061a&STUDY_ID=6a230fc25d128c9d1b56061a&SESSION_ID=6a26cc17d17ccd6b54b3fa2a?PROLIFIC_PID=6a02fc6e1186071261f2734f&SESSION_ID=6a26cc17d17ccd6b54b3fa2a?","en-US,en;q=0.9","6a02fc6e1186071261f2734f","6a230fc25d128c9d1b56061a","6a26cc17d17ccd6b54b3fa2a?","6a02fc6e1186071261f2734f","6a230fc25d128c9d1b56061a","6a26cc17d17ccd6b54b3fa2a?","30","[17,4,11,21,13,14,1,12,7,3,18,10,9,25,30,27,5,15,19,8,29,6,26,16,20,23,24,2,22,28]","[""U17"",""U4"",""U11"",""U21"",""P13"",""U14"",""P1"",""U12"",""P7"",""U3"",""P18"",""U10"",""P9"",""U25"",""U30"",""U27"",""P5"",""P15"",""P19"",""P8"",""P29"",""U6"",""P26"",""P16"",""U20"",""U23"",""P24"",""U2"",""U22"",""U28""]","[""P17"",""P4"",""P11"",""P21"",""U13"",""P14"",""U1"",""P12"",""U7"",""P3"",""U18"",""P10"",""U9"",""P25"",""P30"",""P27"",""U5"",""U15"",""U19"",""U8"",""U29"",""P6"",""U26"",""U16"",""P20"",""P23"",""U24"",""P2"",""P22"",""P28""]","5","5","0","0","0","0","","null","[""baking_v1.mp4""]","null","segmentation_video","","","","","","","","","baking_v1.mp4","baking","Predictable","[1.488583,4.496594,8.824935,16.320904,19.369066,21.344578,22.91253,25.521283]","8","","P1","1","1","7","1.5679520000000018","false","false","false","","false","0","0","false","false","false","false",""
"","","","","","survey-multi-choice","43","2.0.0","430410","66","1","2026-06-08 14:05:25","segmentation_norming_randomized_order_maxrun_attention_v4","81.99.50.76","Mozilla/5.0 (Windows NT 10.0; Win64; x64) AppleWebKit/537.36 (KHTML, like Gecko) Chrome/148.0.0.0 Safari/537.36","WebKit","Chrome","148.0.0.0","Windows","10.0","https://uencdihehs.cognition.run/?PROLIFIC_PID=6a02fc6e1186071261f2734f&STUDY_ID=6a230fc25d128c9d1b56061a&STUDY_ID=6a230fc25d128c9d1b56061a&SESSION_ID=6a26cc17d17ccd6b54b3fa2a?PROLIFIC_PID=6a02fc6e1186071261f2734f&SESSION_ID=6a26cc17d17ccd6b54b3fa2a?","en-US,en;q=0.9","6a02fc6e1186071261f2734f","6a230fc25d128c9d1b56061a","6a26cc17d17ccd6b54b3fa2a?","6a02fc6e1186071261f2734f","6a230fc25d128c9d1b56061a","6a26cc17d17ccd6b54b3fa2a?","30","[17,4,11,21,13,14,1,12,7,3,18,10,9,25,30,27,5,15,19,8,29,6,26,16,20,23,24,2,22,28]","[""U17"",""U4"",""U11"",""U21"",""P13"",""U14"",""P1"",""U12"",""P7"",""U3"",""P18"",""U10"",""P9"",""U25"",""U30"",""U27"",""P5"",""P15"",""P19"",""P8"",""P29"",""U6"",""P26"",""P16"",""U20"",""U23"",""P24"",""U2"",""U22"",""U28""]","[""P17"",""P4"",""P11"",""P21"",""U13"",""P14"",""U1"",""P12"",""U7"",""P3"",""U18"",""P10"",""U9"",""P25"",""P30"",""P27"",""U5"",""U15"",""U19"",""U8"",""U29"",""P6"",""U26"",""U16"",""P20"",""P23"",""U24"",""P2"",""P22"",""P28""]","5","5","0","0","0","0","","2399","","{""confidence_rating"":""Moderately confident""}","confidence_question","[0]","","","","","","","","","baking","Predictable","","","","P1","1","1","7","","","","","","","","","","","","","Moderately confident"
"","","","","","video-keyboard-response","44","2.0.0","466210","66","1","2026-06-08 14:05:25","segmentation_norming_randomized_order_maxrun_attention_v4","81.99.50.76","Mozilla/5.0 (Windows NT 10.0; Win64; x64) AppleWebKit/537.36 (KHTML, like Gecko) Chrome/148.0.0.0 Safari/537.36","WebKit","Chrome","148.0.0.0","Windows","10.0","https://uencdihehs.cognition.run/?PROLIFIC_PID=6a02fc6e1186071261f2734f&STUDY_ID=6a230fc25d128c9d1b56061a&STUDY_ID=6a230fc25d128c9d1b56061a&SESSION_ID=6a26cc17d17ccd6b54b3fa2a?PROLIFIC_PID=6a02fc6e1186071261f2734f&SESSION_ID=6a26cc17d17ccd6b54b3fa2a?","en-US,en;q=0.9","6a02fc6e1186071261f2734f","6a230fc25d128c9d1b56061a","6a26cc17d17ccd6b54b3fa2a?","6a02fc6e1186071261f2734f","6a230fc25d128c9d1b56061a","6a26cc17d17ccd6b54b3fa2a?","30","[17,4,11,21,13,14,1,12,7,3,18,10,9,25,30,27,5,15,19,8,29,6,26,16,20,23,24,2,22,28]","[""U17"",""U4"",""U11"",""U21"",""P13"",""U14"",""P1"",""U12"",""P7"",""U3"",""P18"",""U10"",""P9"",""U25"",""U30"",""U27"",""P5"",""P15"",""P19"",""P8"",""P29"",""U6"",""P26"",""P16"",""U20"",""U23"",""P24"",""U2"",""U22"",""U28""]","[""P17"",""P4"",""P11"",""P21"",""U13"",""P14"",""U1"",""P12"",""U7"",""P3"",""U18"",""P10"",""U9"",""P25"",""P30"",""P27"",""U5"",""U15"",""U19"",""U8"",""U29"",""P6"",""U26"",""U16"",""P20"",""P23"",""U24"",""P2"",""P22"",""P28""]","5","5","0","0","0","0","","null","[""football_v2.mp4""]","null","segmentation_video","","","","","","","","","football_v2.mp4","football","Unpredictable","[1.684797,4.260969,7.048391,11.165463,21.16489,24.148976,30.044573,32.588906]","8","","U12","12","1","8","2.5443330000000017","false","false","false","","false","0","0","false","false","false","false",""
"","","","","","survey-multi-choice","47","2.0.0","468586","66","1","2026-06-08 14:05:25","segmentation_norming_randomized_order_maxrun_attention_v4","81.99.50.76","Mozilla/5.0 (Windows NT 10.0; Win64; x64) AppleWebKit/537.36 (KHTML, like Gecko) Chrome/148.0.0.0 Safari/537.36","WebKit","Chrome","148.0.0.0","Windows","10.0","https://uencdihehs.cognition.run/?PROLIFIC_PID=6a02fc6e1186071261f2734f&STUDY_ID=6a230fc25d128c9d1b56061a&STUDY_ID=6a230fc25d128c9d1b56061a&SESSION_ID=6a26cc17d17ccd6b54b3fa2a?PROLIFIC_PID=6a02fc6e1186071261f2734f&SESSION_ID=6a26cc17d17ccd6b54b3fa2a?","en-US,en;q=0.9","6a02fc6e1186071261f2734f","6a230fc25d128c9d1b56061a","6a26cc17d17ccd6b54b3fa2a?","6a02fc6e1186071261f2734f","6a230fc25d128c9d1b56061a","6a26cc17d17ccd6b54b3fa2a?","30","[17,4,11,21,13,14,1,12,7,3,18,10,9,25,30,27,5,15,19,8,29,6,26,16,20,23,24,2,22,28]","[""U17"",""U4"",""U11"",""U21"",""P13"",""U14"",""P1"",""U12"",""P7"",""U3"",""P18"",""U10"",""P9"",""U25"",""U30"",""U27"",""P5"",""P15"",""P19"",""P8"",""P29"",""U6"",""P26"",""P16"",""U20"",""U23"",""P24"",""U2"",""U22"",""U28""]","[""P17"",""P4"",""P11"",""P21"",""U13"",""P14"",""U1"",""P12"",""U7"",""P3"",""U18"",""P10"",""U9"",""P25"",""P30"",""P27"",""U5"",""U15"",""U19"",""U8"",""U29"",""P6"",""U26"",""U16"",""P20"",""P23"",""U24"",""P2"",""P22"",""P28""]","5","5","0","0","0","0","","2375","","{""confidence_rating"":""Moderately confident""}","confidence_question","[0]","","","","","","","","","football","Unpredictable","","","","U12","12","1","8","","","","","","","","","","","","","Moderately confident"
"","","","","","video-keyboard-response","48","2.0.0","498010","66","1","2026-06-08 14:05:25","segmentation_norming_randomized_order_maxrun_attention_v4","81.99.50.76","Mozilla/5.0 (Windows NT 10.0; Win64; x64) AppleWebKit/537.36 (KHTML, like Gecko) Chrome/148.0.0.0 Safari/537.36","WebKit","Chrome","148.0.0.0","Windows","10.0","https://uencdihehs.cognition.run/?PROLIFIC_PID=6a02fc6e1186071261f2734f&STUDY_ID=6a230fc25d128c9d1b56061a&STUDY_ID=6a230fc25d128c9d1b56061a&SESSION_ID=6a26cc17d17ccd6b54b3fa2a?PROLIFIC_PID=6a02fc6e1186071261f2734f&SESSION_ID=6a26cc17d17ccd6b54b3fa2a?","en-US,en;q=0.9","6a02fc6e1186071261f2734f","6a230fc25d128c9d1b56061a","6a26cc17d17ccd6b54b3fa2a?","6a02fc6e1186071261f2734f","6a230fc25d128c9d1b56061a","6a26cc17d17ccd6b54b3fa2a?","30","[17,4,11,21,13,14,1,12,7,3,18,10,9,25,30,27,5,15,19,8,29,6,26,16,20,23,24,2,22,28]","[""U17"",""U4"",""U11"",""U21"",""P13"",""U14"",""P1"",""U12"",""P7"",""U3"",""P18"",""U10"",""P9"",""U25"",""U30"",""U27"",""P5"",""P15"",""P19"",""P8"",""P29"",""U6"",""P26"",""P16"",""U20"",""U23"",""P24"",""U2"",""U22"",""U28""]","[""P17"",""P4"",""P11"",""P21"",""U13"",""P14"",""U1"",""P12"",""U7"",""P3"",""U18"",""P10"",""U9"",""P25"",""P30"",""P27"",""U5"",""U15"",""U19"",""U8"",""U29"",""P6"",""U26"",""U16"",""P20"",""P23"",""U24"",""P2"",""P22"",""P28""]","5","5","0","0","0","0","","null","[""bike_v1.mp4""]","null","segmentation_video","","","","","","","","","bike_v1.mp4","bike","Predictable","[3.280896,8.608851,12.08096,17.616622,22.888841]","5","","P7","7","1","9","3.4721089999999997","false","false","false","","false","0","0","false","false","false","false",""
"","","","","","survey-multi-choice","51","2.0.0","501248","66","1","2026-06-08 14:05:25","segmentation_norming_randomized_order_maxrun_attention_v4","81.99.50.76","Mozilla/5.0 (Windows NT 10.0; Win64; x64) AppleWebKit/537.36 (KHTML, like Gecko) Chrome/148.0.0.0 Safari/537.36","WebKit","Chrome","148.0.0.0","Windows","10.0","https://uencdihehs.cognition.run/?PROLIFIC_PID=6a02fc6e1186071261f2734f&STUDY_ID=6a230fc25d128c9d1b56061a&STUDY_ID=6a230fc25d128c9d1b56061a&SESSION_ID=6a26cc17d17ccd6b54b3fa2a?PROLIFIC_PID=6a02fc6e1186071261f2734f&SESSION_ID=6a26cc17d17ccd6b54b3fa2a?","en-US,en;q=0.9","6a02fc6e1186071261f2734f","6a230fc25d128c9d1b56061a","6a26cc17d17ccd6b54b3fa2a?","6a02fc6e1186071261f2734f","6a230fc25d128c9d1b56061a","6a26cc17d17ccd6b54b3fa2a?","30","[17,4,11,21,13,14,1,12,7,3,18,10,9,25,30,27,5,15,19,8,29,6,26,16,20,23,24,2,22,28]","[""U17"",""U4"",""U11"",""U21"",""P13"",""U14"",""P1"",""U12"",""P7"",""U3"",""P18"",""U10"",""P9"",""U25"",""U30"",""U27"",""P5"",""P15"",""P19"",""P8"",""P29"",""U6"",""P26"",""P16"",""U20"",""U23"",""P24"",""U2"",""U22"",""U28""]","[""P17"",""P4"",""P11"",""P21"",""U13"",""P14"",""U1"",""P12"",""U7"",""P3"",""U18"",""P10"",""U9"",""P25"",""P30"",""P27"",""U5"",""U15"",""U19"",""U8"",""U29"",""P6"",""U26"",""U16"",""P20"",""P23"",""U24"",""P2"",""P22"",""P28""]","5","5","0","0","0","0","","3237","","{""confidence_rating"":""Moderately confident""}","confidence_question","[0]","","","","","","","","","bike","Predictable","","","","P7","7","1","9","","","","","","","","","","","","","Moderately confident"
"","","","","","video-keyboard-response","52","2.0.0","520470","66","1","2026-06-08 14:05:25","segmentation_norming_randomized_order_maxrun_attention_v4","81.99.50.76","Mozilla/5.0 (Windows NT 10.0; Win64; x64) AppleWebKit/537.36 (KHTML, like Gecko) Chrome/148.0.0.0 Safari/537.36","WebKit","Chrome","148.0.0.0","Windows","10.0","https://uencdihehs.cognition.run/?PROLIFIC_PID=6a02fc6e1186071261f2734f&STUDY_ID=6a230fc25d128c9d1b56061a&STUDY_ID=6a230fc25d128c9d1b56061a&SESSION_ID=6a26cc17d17ccd6b54b3fa2a?PROLIFIC_PID=6a02fc6e1186071261f2734f&SESSION_ID=6a26cc17d17ccd6b54b3fa2a?","en-US,en;q=0.9","6a02fc6e1186071261f2734f","6a230fc25d128c9d1b56061a","6a26cc17d17ccd6b54b3fa2a?","6a02fc6e1186071261f2734f","6a230fc25d128c9d1b56061a","6a26cc17d17ccd6b54b3fa2a?","30","[17,4,11,21,13,14,1,12,7,3,18,10,9,25,30,27,5,15,19,8,29,6,26,16,20,23,24,2,22,28]","[""U17"",""U4"",""U11"",""U21"",""P13"",""U14"",""P1"",""U12"",""P7"",""U3"",""P18"",""U10"",""P9"",""U25"",""U30"",""U27"",""P5"",""P15"",""P19"",""P8"",""P29"",""U6"",""P26"",""P16"",""U20"",""U23"",""P24"",""U2"",""U22"",""U28""]","[""P17"",""P4"",""P11"",""P21"",""U13"",""P14"",""U1"",""P12"",""U7"",""P3"",""U18"",""P10"",""U9"",""P25"",""P30"",""P27"",""U5"",""U15"",""U19"",""U8"",""U29"",""P6"",""U26"",""U16"",""P20"",""P23"",""U24"",""P2"",""P22"",""P28""]","5","5","0","0","0","0","","null","[""bank_v2.mp4""]","null","segmentation_video","","","","","","","","","bank_v2.mp4","bank","Unpredictable","[1.341469,5.956744,8.773198,9.44476,10.708899,17.132873,18.708551]","7","","U3","3","1","10","0.6715619999999998","false","false","false","","false","0","0","false","false","false","false",""
"","","","","","survey-multi-choice","55","2.0.0","523112","66","1","2026-06-08 14:05:25","segmentation_norming_randomized_order_maxrun_attention_v4","81.99.50.76","Mozilla/5.0 (Windows NT 10.0; Win64; x64) AppleWebKit/537.36 (KHTML, like Gecko) Chrome/148.0.0.0 Safari/537.36","WebKit","Chrome","148.0.0.0","Windows","10.0","https://uencdihehs.cognition.run/?PROLIFIC_PID=6a02fc6e1186071261f2734f&STUDY_ID=6a230fc25d128c9d1b56061a&STUDY_ID=6a230fc25d128c9d1b56061a&SESSION_ID=6a26cc17d17ccd6b54b3fa2a?PROLIFIC_PID=6a02fc6e1186071261f2734f&SESSION_ID=6a26cc17d17ccd6b54b3fa2a?","en-US,en;q=0.9","6a02fc6e1186071261f2734f","6a230fc25d128c9d1b56061a","6a26cc17d17ccd6b54b3fa2a?","6a02fc6e1186071261f2734f","6a230fc25d128c9d1b56061a","6a26cc17d17ccd6b54b3fa2a?","30","[17,4,11,21,13,14,1,12,7,3,18,10,9,25,30,27,5,15,19,8,29,6,26,16,20,23,24,2,22,28]","[""U17"",""U4"",""U11"",""U21"",""P13"",""U14"",""P1"",""U12"",""P7"",""U3"",""P18"",""U10"",""P9"",""U25"",""U30"",""U27"",""P5"",""P15"",""P19"",""P8"",""P29"",""U6"",""P26"",""P16"",""U20"",""U23"",""P24"",""U2"",""U22"",""U28""]","[""P17"",""P4"",""P11"",""P21"",""U13"",""P14"",""U1"",""P12"",""U7"",""P3"",""U18"",""P10"",""U9"",""P25"",""P30"",""P27"",""U5"",""U15"",""U19"",""U8"",""U29"",""P6"",""U26"",""U16"",""P20"",""P23"",""U24"",""P2"",""P22"",""P28""]","5","5","0","0","0","0","","2640","","{""confidence_rating"":""Moderately confident""}","confidence_question","[0]","","","","","","","","","bank","Unpredictable","","","","U3","3","1","10","","","","","","","","","","","","","Moderately confident"
"","","","","","video-keyboard-response","56","2.0.0","547770","66","1","2026-06-08 14:05:25","segmentation_norming_randomized_order_maxrun_attention_v4","81.99.50.76","Mozilla/5.0 (Windows NT 10.0; Win64; x64) AppleWebKit/537.36 (KHTML, like Gecko) Chrome/148.0.0.0 Safari/537.36","WebKit","Chrome","148.0.0.0","Windows","10.0","https://uencdihehs.cognition.run/?PROLIFIC_PID=6a02fc6e1186071261f2734f&STUDY_ID=6a230fc25d128c9d1b56061a&STUDY_ID=6a230fc25d128c9d1b56061a&SESSION_ID=6a26cc17d17ccd6b54b3fa2a?PROLIFIC_PID=6a02fc6e1186071261f2734f&SESSION_ID=6a26cc17d17ccd6b54b3fa2a?","en-US,en;q=0.9","6a02fc6e1186071261f2734f","6a230fc25d128c9d1b56061a","6a26cc17d17ccd6b54b3fa2a?","6a02fc6e1186071261f2734f","6a230fc25d128c9d1b56061a","6a26cc17d17ccd6b54b3fa2a?","30","[17,4,11,21,13,14,1,12,7,3,18,10,9,25,30,27,5,15,19,8,29,6,26,16,20,23,24,2,22,28]","[""U17"",""U4"",""U11"",""U21"",""P13"",""U14"",""P1"",""U12"",""P7"",""U3"",""P18"",""U10"",""P9"",""U25"",""U30"",""U27"",""P5"",""P15"",""P19"",""P8"",""P29"",""U6"",""P26"",""P16"",""U20"",""U23"",""P24"",""U2"",""U22"",""U28""]","[""P17"",""P4"",""P11"",""P21"",""U13"",""P14"",""U1"",""P12"",""U7"",""P3"",""U18"",""P10"",""U9"",""P25"",""P30"",""P27"",""U5"",""U15"",""U19"",""U8"",""U29"",""P6"",""U26"",""U16"",""P20"",""P23"",""U24"",""P2"",""P22"",""P28""]","5","5","0","0","0","0","","null","[""painting_v1.mp4""]","null","segmentation_video","","","","","","","","","painting_v1.mp4","painting","Predictable","[1.424676,5.464716,8.720732,10.928758,11.632505,13.217079,16.193309,19.9208,22.44077]","9","","P18","18","1","11","0.7037469999999999","false","false","false","","false","0","0","false","false","false","false",""
"","","","","","survey-multi-choice","59","2.0.0","550420","66","1","2026-06-08 14:05:25","segmentation_norming_randomized_order_maxrun_attention_v4","81.99.50.76","Mozilla/5.0 (Windows NT 10.0; Win64; x64) AppleWebKit/537.36 (KHTML, like Gecko) Chrome/148.0.0.0 Safari/537.36","WebKit","Chrome","148.0.0.0","Windows","10.0","https://uencdihehs.cognition.run/?PROLIFIC_PID=6a02fc6e1186071261f2734f&STUDY_ID=6a230fc25d128c9d1b56061a&STUDY_ID=6a230fc25d128c9d1b56061a&SESSION_ID=6a26cc17d17ccd6b54b3fa2a?PROLIFIC_PID=6a02fc6e1186071261f2734f&SESSION_ID=6a26cc17d17ccd6b54b3fa2a?","en-US,en;q=0.9","6a02fc6e1186071261f2734f","6a230fc25d128c9d1b56061a","6a26cc17d17ccd6b54b3fa2a?","6a02fc6e1186071261f2734f","6a230fc25d128c9d1b56061a","6a26cc17d17ccd6b54b3fa2a?","30","[17,4,11,21,13,14,1,12,7,3,18,10,9,25,30,27,5,15,19,8,29,6,26,16,20,23,24,2,22,28]","[""U17"",""U4"",""U11"",""U21"",""P13"",""U14"",""P1"",""U12"",""P7"",""U3"",""P18"",""U10"",""P9"",""U25"",""U30"",""U27"",""P5"",""P15"",""P19"",""P8"",""P29"",""U6"",""P26"",""P16"",""U20"",""U23"",""P24"",""U2"",""U22"",""U28""]","[""P17"",""P4"",""P11"",""P21"",""U13"",""P14"",""U1"",""P12"",""U7"",""P3"",""U18"",""P10"",""U9"",""P25"",""P30"",""P27"",""U5"",""U15"",""U19"",""U8"",""U29"",""P6"",""U26"",""U16"",""P20"",""P23"",""U24"",""P2"",""P22"",""P28""]","5","5","0","0","0","0","","2649","","{""confidence_rating"":""Moderately confident""}","confidence_question","[0]","","","","","","","","","painting","Predictable","","","","P18","18","1","11","","","","","","","","","","","","","Moderately confident"
"","","","","","video-keyboard-response","60","2.0.0","581010","66","1","2026-06-08 14:05:25","segmentation_norming_randomized_order_maxrun_attention_v4","81.99.50.76","Mozilla/5.0 (Windows NT 10.0; Win64; x64) AppleWebKit/537.36 (KHTML, like Gecko) Chrome/148.0.0.0 Safari/537.36","WebKit","Chrome","148.0.0.0","Windows","10.0","https://uencdihehs.cognition.run/?PROLIFIC_PID=6a02fc6e1186071261f2734f&STUDY_ID=6a230fc25d128c9d1b56061a&STUDY_ID=6a230fc25d128c9d1b56061a&SESSION_ID=6a26cc17d17ccd6b54b3fa2a?PROLIFIC_PID=6a02fc6e1186071261f2734f&SESSION_ID=6a26cc17d17ccd6b54b3fa2a?","en-US,en;q=0.9","6a02fc6e1186071261f2734f","6a230fc25d128c9d1b56061a","6a26cc17d17ccd6b54b3fa2a?","6a02fc6e1186071261f2734f","6a230fc25d128c9d1b56061a","6a26cc17d17ccd6b54b3fa2a?","30","[17,4,11,21,13,14,1,12,7,3,18,10,9,25,30,27,5,15,19,8,29,6,26,16,20,23,24,2,22,28]","[""U17"",""U4"",""U11"",""U21"",""P13"",""U14"",""P1"",""U12"",""P7"",""U3"",""P18"",""U10"",""P9"",""U25"",""U30"",""U27"",""P5"",""P15"",""P19"",""P8"",""P29"",""U6"",""P26"",""P16"",""U20"",""U23"",""P24"",""U2"",""U22"",""U28""]","[""P17"",""P4"",""P11"",""P21"",""U13"",""P14"",""U1"",""P12"",""U7"",""P3"",""U18"",""P10"",""U9"",""P25"",""P30"",""P27"",""U5"",""U15"",""U19"",""U8"",""U29"",""P6"",""U26"",""U16"",""P20"",""P23"",""U24"",""P2"",""P22"",""P28""]","5","5","0","0","0","0","","null","[""cleaning_v2.mp4""]","null","segmentation_video","","","","","","","","","cleaning_v2.mp4","cleaning","Unpredictable","[1.576597,3.368502,6.656858,9.089555,13.097103,19.776661,21.856869,23.608981]","8","","U10","10","1","12","1.7521120000000003","false","false","false","","false","0","0","false","false","false","false",""
"","","","","","survey-multi-choice","63","2.0.0","583462","66","1","2026-06-08 14:05:25","segmentation_norming_randomized_order_maxrun_attention_v4","81.99.50.76","Mozilla/5.0 (Windows NT 10.0; Win64; x64) AppleWebKit/537.36 (KHTML, like Gecko) Chrome/148.0.0.0 Safari/537.36","WebKit","Chrome","148.0.0.0","Windows","10.0","https://uencdihehs.cognition.run/?PROLIFIC_PID=6a02fc6e1186071261f2734f&STUDY_ID=6a230fc25d128c9d1b56061a&STUDY_ID=6a230fc25d128c9d1b56061a&SESSION_ID=6a26cc17d17ccd6b54b3fa2a?PROLIFIC_PID=6a02fc6e1186071261f2734f&SESSION_ID=6a26cc17d17ccd6b54b3fa2a?","en-US,en;q=0.9","6a02fc6e1186071261f2734f","6a230fc25d128c9d1b56061a","6a26cc17d17ccd6b54b3fa2a?","6a02fc6e1186071261f2734f","6a230fc25d128c9d1b56061a","6a26cc17d17ccd6b54b3fa2a?","30","[17,4,11,21,13,14,1,12,7,3,18,10,9,25,30,27,5,15,19,8,29,6,26,16,20,23,24,2,22,28]","[""U17"",""U4"",""U11"",""U21"",""P13"",""U14"",""P1"",""U12"",""P7"",""U3"",""P18"",""U10"",""P9"",""U25"",""U30"",""U27"",""P5"",""P15"",""P19"",""P8"",""P29"",""U6"",""P26"",""P16"",""U20"",""U23"",""P24"",""U2"",""U22"",""U28""]","[""P17"",""P4"",""P11"",""P21"",""U13"",""P14"",""U1"",""P12"",""U7"",""P3"",""U18"",""P10"",""U9"",""P25"",""P30"",""P27"",""U5"",""U15"",""U19"",""U8"",""U29"",""P6"",""U26"",""U16"",""P20"",""P23"",""U24"",""P2"",""P22"",""P28""]","5","5","0","0","0","0","","2451","","{""confidence_rating"":""Moderately confident""}","confidence_question","[0]","","","","","","","","","cleaning","Unpredictable","","","","U10","10","1","12","","","","","","","","","","","","","Moderately confident"
"","","","","","video-keyboard-response","64","2.0.0","621270","66","1","2026-06-08 14:05:25","segmentation_norming_randomized_order_maxrun_attention_v4","81.99.50.76","Mozilla/5.0 (Windows NT 10.0; Win64; x64) AppleWebKit/537.36 (KHTML, like Gecko) Chrome/148.0.0.0 Safari/537.36","WebKit","Chrome","148.0.0.0","Windows","10.0","https://uencdihehs.cognition.run/?PROLIFIC_PID=6a02fc6e1186071261f2734f&STUDY_ID=6a230fc25d128c9d1b56061a&STUDY_ID=6a230fc25d128c9d1b56061a&SESSION_ID=6a26cc17d17ccd6b54b3fa2a?PROLIFIC_PID=6a02fc6e1186071261f2734f&SESSION_ID=6a26cc17d17ccd6b54b3fa2a?","en-US,en;q=0.9","6a02fc6e1186071261f2734f","6a230fc25d128c9d1b56061a","6a26cc17d17ccd6b54b3fa2a?","6a02fc6e1186071261f2734f","6a230fc25d128c9d1b56061a","6a26cc17d17ccd6b54b3fa2a?","30","[17,4,11,21,13,14,1,12,7,3,18,10,9,25,30,27,5,15,19,8,29,6,26,16,20,23,24,2,22,28]","[""U17"",""U4"",""U11"",""U21"",""P13"",""U14"",""P1"",""U12"",""P7"",""U3"",""P18"",""U10"",""P9"",""U25"",""U30"",""U27"",""P5"",""P15"",""P19"",""P8"",""P29"",""U6"",""P26"",""P16"",""U20"",""U23"",""P24"",""U2"",""U22"",""U28""]","[""P17"",""P4"",""P11"",""P21"",""U13"",""P14"",""U1"",""P12"",""U7"",""P3"",""U18"",""P10"",""U9"",""P25"",""P30"",""P27"",""U5"",""U15"",""U19"",""U8"",""U29"",""P6"",""U26"",""U16"",""P20"",""P23"",""U24"",""P2"",""P22"",""P28""]","5","5","0","0","0","0","","null","[""cereal_v1.mp4""]","null","segmentation_video","","","","","","","","","cereal_v1.mp4","cereal","Predictable","[1.516782,3.71688,5.724882,7.276573,11.756573,13.701427,16.436669,17.64458,18.644733,21.0045,24.301175,26.37249,28.516793,29.812615,31.836988,33.252474,34.612725,36.332976,37.036832]","19","","P9","9","1","13","0.7038559999999947","false","false","false","","false","0","0","false","false","false","false",""
"","","","","","survey-multi-choice","67","2.0.0","623836","66","1","2026-06-08 14:05:25","segmentation_norming_randomized_order_maxrun_attention_v4","81.99.50.76","Mozilla/5.0 (Windows NT 10.0; Win64; x64) AppleWebKit/537.36 (KHTML, like Gecko) Chrome/148.0.0.0 Safari/537.36","WebKit","Chrome","148.0.0.0","Windows","10.0","https://uencdihehs.cognition.run/?PROLIFIC_PID=6a02fc6e1186071261f2734f&STUDY_ID=6a230fc25d128c9d1b56061a&STUDY_ID=6a230fc25d128c9d1b56061a&SESSION_ID=6a26cc17d17ccd6b54b3fa2a?PROLIFIC_PID=6a02fc6e1186071261f2734f&SESSION_ID=6a26cc17d17ccd6b54b3fa2a?","en-US,en;q=0.9","6a02fc6e1186071261f2734f","6a230fc25d128c9d1b56061a","6a26cc17d17ccd6b54b3fa2a?","6a02fc6e1186071261f2734f","6a230fc25d128c9d1b56061a","6a26cc17d17ccd6b54b3fa2a?","30","[17,4,11,21,13,14,1,12,7,3,18,10,9,25,30,27,5,15,19,8,29,6,26,16,20,23,24,2,22,28]","[""U17"",""U4"",""U11"",""U21"",""P13"",""U14"",""P1"",""U12"",""P7"",""U3"",""P18"",""U10"",""P9"",""U25"",""U30"",""U27"",""P5"",""P15"",""P19"",""P8"",""P29"",""U6"",""P26"",""P16"",""U20"",""U23"",""P24"",""U2"",""U22"",""U28""]","[""P17"",""P4"",""P11"",""P21"",""U13"",""P14"",""U1"",""P12"",""U7"",""P3"",""U18"",""P10"",""U9"",""P25"",""P30"",""P27"",""U5"",""U15"",""U19"",""U8"",""U29"",""P6"",""U26"",""U16"",""P20"",""P23"",""U24"",""P2"",""P22"",""P28""]","5","5","0","0","0","0","","2565","","{""confidence_rating"":""Moderately confident""}","confidence_question","[0]","","","","","","","","","cereal","Predictable","","","","P9","9","1","13","","","","","","","","","","","","","Moderately confident"
"","","","","","video-keyboard-response","68","2.0.0","651090","66","1","2026-06-08 14:05:25","segmentation_norming_randomized_order_maxrun_attention_v4","81.99.50.76","Mozilla/5.0 (Windows NT 10.0; Win64; x64) AppleWebKit/537.36 (KHTML, like Gecko) Chrome/148.0.0.0 Safari/537.36","WebKit","Chrome","148.0.0.0","Windows","10.0","https://uencdihehs.cognition.run/?PROLIFIC_PID=6a02fc6e1186071261f2734f&STUDY_ID=6a230fc25d128c9d1b56061a&STUDY_ID=6a230fc25d128c9d1b56061a&SESSION_ID=6a26cc17d17ccd6b54b3fa2a?PROLIFIC_PID=6a02fc6e1186071261f2734f&SESSION_ID=6a26cc17d17ccd6b54b3fa2a?","en-US,en;q=0.9","6a02fc6e1186071261f2734f","6a230fc25d128c9d1b56061a","6a26cc17d17ccd6b54b3fa2a?","6a02fc6e1186071261f2734f","6a230fc25d128c9d1b56061a","6a26cc17d17ccd6b54b3fa2a?","30","[17,4,11,21,13,14,1,12,7,3,18,10,9,25,30,27,5,15,19,8,29,6,26,16,20,23,24,2,22,28]","[""U17"",""U4"",""U11"",""U21"",""P13"",""U14"",""P1"",""U12"",""P7"",""U3"",""P18"",""U10"",""P9"",""U25"",""U30"",""U27"",""P5"",""P15"",""P19"",""P8"",""P29"",""U6"",""P26"",""P16"",""U20"",""U23"",""P24"",""U2"",""U22"",""U28""]","[""P17"",""P4"",""P11"",""P21"",""U13"",""P14"",""U1"",""P12"",""U7"",""P3"",""U18"",""P10"",""U9"",""P25"",""P30"",""P27"",""U5"",""U15"",""U19"",""U8"",""U29"",""P6"",""U26"",""U16"",""P20"",""P23"",""U24"",""P2"",""P22"",""P28""]","5","5","0","0","0","0","","null","[""suitcase_v2.mp4""]","null","segmentation_video","","","","","","","","","suitcase_v2.mp4","suitcase","Unpredictable","[1.232715,2.03246,3.600592,4.584872,6.192911,7.296825,8.144567,8.744536,10.248572,11.192755,12.368971,14.64909,15.70464,17.064512,18.257058,19.624551,20.697086,22.928492,26.480776]","19","","U25","25","1","14","0.5999689999999998","false","false","false","","false","0","0","false","false","false","false",""
"","","","","","survey-multi-choice","71","2.0.0","653310","66","1","2026-06-08 14:05:25","segmentation_norming_randomized_order_maxrun_attention_v4","81.99.50.76","Mozilla/5.0 (Windows NT 10.0; Win64; x64) AppleWebKit/537.36 (KHTML, like Gecko) Chrome/148.0.0.0 Safari/537.36","WebKit","Chrome","148.0.0.0","Windows","10.0","https://uencdihehs.cognition.run/?PROLIFIC_PID=6a02fc6e1186071261f2734f&STUDY_ID=6a230fc25d128c9d1b56061a&STUDY_ID=6a230fc25d128c9d1b56061a&SESSION_ID=6a26cc17d17ccd6b54b3fa2a?PROLIFIC_PID=6a02fc6e1186071261f2734f&SESSION_ID=6a26cc17d17ccd6b54b3fa2a?","en-US,en;q=0.9","6a02fc6e1186071261f2734f","6a230fc25d128c9d1b56061a","6a26cc17d17ccd6b54b3fa2a?","6a02fc6e1186071261f2734f","6a230fc25d128c9d1b56061a","6a26cc17d17ccd6b54b3fa2a?","30","[17,4,11,21,13,14,1,12,7,3,18,10,9,25,30,27,5,15,19,8,29,6,26,16,20,23,24,2,22,28]","[""U17"",""U4"",""U11"",""U21"",""P13"",""U14"",""P1"",""U12"",""P7"",""U3"",""P18"",""U10"",""P9"",""U25"",""U30"",""U27"",""P5"",""P15"",""P19"",""P8"",""P29"",""U6"",""P26"",""P16"",""U20"",""U23"",""P24"",""U2"",""U22"",""U28""]","[""P17"",""P4"",""P11"",""P21"",""U13"",""P14"",""U1"",""P12"",""U7"",""P3"",""U18"",""P10"",""U9"",""P25"",""P30"",""P27"",""U5"",""U15"",""U19"",""U8"",""U29"",""P6"",""U26"",""U16"",""P20"",""P23"",""U24"",""P2"",""P22"",""P28""]","5","5","0","0","0","0","","2219","","{""confidence_rating"":""Moderately confident""}","confidence_question","[0]","","","","","","","","","suitcase","Unpredictable","","","","U25","25","1","14","","","","","","","","","","","","","Moderately confident"
"","","","","","video-keyboard-response","72","2.0.0","689970","66","1","2026-06-08 14:05:25","segmentation_norming_randomized_order_maxrun_attention_v4","81.99.50.76","Mozilla/5.0 (Windows NT 10.0; Win64; x64) AppleWebKit/537.36 (KHTML, like Gecko) Chrome/148.0.0.0 Safari/537.36","WebKit","Chrome","148.0.0.0","Windows","10.0","https://uencdihehs.cognition.run/?PROLIFIC_PID=6a02fc6e1186071261f2734f&STUDY_ID=6a230fc25d128c9d1b56061a&STUDY_ID=6a230fc25d128c9d1b56061a&SESSION_ID=6a26cc17d17ccd6b54b3fa2a?PROLIFIC_PID=6a02fc6e1186071261f2734f&SESSION_ID=6a26cc17d17ccd6b54b3fa2a?","en-US,en;q=0.9","6a02fc6e1186071261f2734f","6a230fc25d128c9d1b56061a","6a26cc17d17ccd6b54b3fa2a?","6a02fc6e1186071261f2734f","6a230fc25d128c9d1b56061a","6a26cc17d17ccd6b54b3fa2a?","30","[17,4,11,21,13,14,1,12,7,3,18,10,9,25,30,27,5,15,19,8,29,6,26,16,20,23,24,2,22,28]","[""U17"",""U4"",""U11"",""U21"",""P13"",""U14"",""P1"",""U12"",""P7"",""U3"",""P18"",""U10"",""P9"",""U25"",""U30"",""U27"",""P5"",""P15"",""P19"",""P8"",""P29"",""U6"",""P26"",""P16"",""U20"",""U23"",""P24"",""U2"",""U22"",""U28""]","[""P17"",""P4"",""P11"",""P21"",""U13"",""P14"",""U1"",""P12"",""U7"",""P3"",""U18"",""P10"",""U9"",""P25"",""P30"",""P27"",""U5"",""U15"",""U19"",""U8"",""U29"",""P6"",""U26"",""U16"",""P20"",""P23"",""U24"",""P2"",""P22"",""P28""]","5","5","0","0","0","0","","null","[""whiteboard_v2.mp4""]","null","segmentation_video","","","","","","","","","whiteboard_v2.mp4","whiteboard","Unpredictable","[0.792711,5.089324,8.648884,11.992994,14.600519,17.305421,18.28881,20.248884,22.880731,24.696767,26.160691]","11","","U30","30","1","15","0.9833890000000025","false","false","false","","false","0","0","false","false","false","false",""
"","","","","","survey-multi-choice","75","2.0.0","693584","66","1","2026-06-08 14:05:25","segmentation_norming_randomized_order_maxrun_attention_v4","81.99.50.76","Mozilla/5.0 (Windows NT 10.0; Win64; x64) AppleWebKit/537.36 (KHTML, like Gecko) Chrome/148.0.0.0 Safari/537.36","WebKit","Chrome","148.0.0.0","Windows","10.0","https://uencdihehs.cognition.run/?PROLIFIC_PID=6a02fc6e1186071261f2734f&STUDY_ID=6a230fc25d128c9d1b56061a&STUDY_ID=6a230fc25d128c9d1b56061a&SESSION_ID=6a26cc17d17ccd6b54b3fa2a?PROLIFIC_PID=6a02fc6e1186071261f2734f&SESSION_ID=6a26cc17d17ccd6b54b3fa2a?","en-US,en;q=0.9","6a02fc6e1186071261f2734f","6a230fc25d128c9d1b56061a","6a26cc17d17ccd6b54b3fa2a?","6a02fc6e1186071261f2734f","6a230fc25d128c9d1b56061a","6a26cc17d17ccd6b54b3fa2a?","30","[17,4,11,21,13,14,1,12,7,3,18,10,9,25,30,27,5,15,19,8,29,6,26,16,20,23,24,2,22,28]","[""U17"",""U4"",""U11"",""U21"",""P13"",""U14"",""P1"",""U12"",""P7"",""U3"",""P18"",""U10"",""P9"",""U25"",""U30"",""U27"",""P5"",""P15"",""P19"",""P8"",""P29"",""U6"",""P26"",""P16"",""U20"",""U23"",""P24"",""U2"",""U22"",""U28""]","[""P17"",""P4"",""P11"",""P21"",""U13"",""P14"",""U1"",""P12"",""U7"",""P3"",""U18"",""P10"",""U9"",""P25"",""P30"",""P27"",""U5"",""U15"",""U19"",""U8"",""U29"",""P6"",""U26"",""U16"",""P20"",""P23"",""U24"",""P2"",""P22"",""P28""]","5","5","0","0","0","0","","3613","","{""confidence_rating"":""Moderately confident""}","confidence_question","[0]","","","","","","","","","whiteboard","Unpredictable","","","","U30","30","1","15","","","","","","","","","","","","","Moderately confident"
"","","","","","video-keyboard-response","76","2.0.0","724570","66","1","2026-06-08 14:05:25","segmentation_norming_randomized_order_maxrun_attention_v4","81.99.50.76","Mozilla/5.0 (Windows NT 10.0; Win64; x64) AppleWebKit/537.36 (KHTML, like Gecko) Chrome/148.0.0.0 Safari/537.36","WebKit","Chrome","148.0.0.0","Windows","10.0","https://uencdihehs.cognition.run/?PROLIFIC_PID=6a02fc6e1186071261f2734f&STUDY_ID=6a230fc25d128c9d1b56061a&STUDY_ID=6a230fc25d128c9d1b56061a&SESSION_ID=6a26cc17d17ccd6b54b3fa2a?PROLIFIC_PID=6a02fc6e1186071261f2734f&SESSION_ID=6a26cc17d17ccd6b54b3fa2a?","en-US,en;q=0.9","6a02fc6e1186071261f2734f","6a230fc25d128c9d1b56061a","6a26cc17d17ccd6b54b3fa2a?","6a02fc6e1186071261f2734f","6a230fc25d128c9d1b56061a","6a26cc17d17ccd6b54b3fa2a?","30","[17,4,11,21,13,14,1,12,7,3,18,10,9,25,30,27,5,15,19,8,29,6,26,16,20,23,24,2,22,28]","[""U17"",""U4"",""U11"",""U21"",""P13"",""U14"",""P1"",""U12"",""P7"",""U3"",""P18"",""U10"",""P9"",""U25"",""U30"",""U27"",""P5"",""P15"",""P19"",""P8"",""P29"",""U6"",""P26"",""P16"",""U20"",""U23"",""P24"",""U2"",""U22"",""U28""]","[""P17"",""P4"",""P11"",""P21"",""U13"",""P14"",""U1"",""P12"",""U7"",""P3"",""U18"",""P10"",""U9"",""P25"",""P30"",""P27"",""U5"",""U15"",""U19"",""U8"",""U29"",""P6"",""U26"",""U16"",""P20"",""P23"",""U24"",""P2"",""P22"",""P28""]","5","5","0","0","0","0","","null","[""tea_v2.mp4""]","null","segmentation_video","","","","","","","","","tea_v2.mp4","tea","Unpredictable","[1.212579,2.908611,3.836716,5.708923,8.356812,9.196554,11.188701,13.30084,15.21251,18.140748,20.764922,23.853296,25.41248,26.356738,27.54877,28.909257,30.116431]","17","","U27","27","1","16","0.8397420000000011","false","false","false","","false","0","0","false","false","false","false",""
"","","","","","survey-multi-choice","79","2.0.0","726960","66","1","2026-06-08 14:05:25","segmentation_norming_randomized_order_maxrun_attention_v4","81.99.50.76","Mozilla/5.0 (Windows NT 10.0; Win64; x64) AppleWebKit/537.36 (KHTML, like Gecko) Chrome/148.0.0.0 Safari/537.36","WebKit","Chrome","148.0.0.0","Windows","10.0","https://uencdihehs.cognition.run/?PROLIFIC_PID=6a02fc6e1186071261f2734f&STUDY_ID=6a230fc25d128c9d1b56061a&STUDY_ID=6a230fc25d128c9d1b56061a&SESSION_ID=6a26cc17d17ccd6b54b3fa2a?PROLIFIC_PID=6a02fc6e1186071261f2734f&SESSION_ID=6a26cc17d17ccd6b54b3fa2a?","en-US,en;q=0.9","6a02fc6e1186071261f2734f","6a230fc25d128c9d1b56061a","6a26cc17d17ccd6b54b3fa2a?","6a02fc6e1186071261f2734f","6a230fc25d128c9d1b56061a","6a26cc17d17ccd6b54b3fa2a?","30","[17,4,11,21,13,14,1,12,7,3,18,10,9,25,30,27,5,15,19,8,29,6,26,16,20,23,24,2,22,28]","[""U17"",""U4"",""U11"",""U21"",""P13"",""U14"",""P1"",""U12"",""P7"",""U3"",""P18"",""U10"",""P9"",""U25"",""U30"",""U27"",""P5"",""P15"",""P19"",""P8"",""P29"",""U6"",""P26"",""P16"",""U20"",""U23"",""P24"",""U2"",""U22"",""U28""]","[""P17"",""P4"",""P11"",""P21"",""U13"",""P14"",""U1"",""P12"",""U7"",""P3"",""U18"",""P10"",""U9"",""P25"",""P30"",""P27"",""U5"",""U15"",""U19"",""U8"",""U29"",""P6"",""U26"",""U16"",""P20"",""P23"",""U24"",""P2"",""P22"",""P28""]","5","5","0","0","0","0","","2389","","{""confidence_rating"":""Moderately confident""}","confidence_question","[0]","","","","","","","","","tea","Unpredictable","","","","U27","27","1","16","","","","","","","","","","","","","Moderately confident"
"","","","","","video-keyboard-response","80","2.0.0","753830","66","1","2026-06-08 14:05:25","segmentation_norming_randomized_order_maxrun_attention_v4","81.99.50.76","Mozilla/5.0 (Windows NT 10.0; Win64; x64) AppleWebKit/537.36 (KHTML, like Gecko) Chrome/148.0.0.0 Safari/537.36","WebKit","Chrome","148.0.0.0","Windows","10.0","https://uencdihehs.cognition.run/?PROLIFIC_PID=6a02fc6e1186071261f2734f&STUDY_ID=6a230fc25d128c9d1b56061a&STUDY_ID=6a230fc25d128c9d1b56061a&SESSION_ID=6a26cc17d17ccd6b54b3fa2a?PROLIFIC_PID=6a02fc6e1186071261f2734f&SESSION_ID=6a26cc17d17ccd6b54b3fa2a?","en-US,en;q=0.9","6a02fc6e1186071261f2734f","6a230fc25d128c9d1b56061a","6a26cc17d17ccd6b54b3fa2a?","6a02fc6e1186071261f2734f","6a230fc25d128c9d1b56061a","6a26cc17d17ccd6b54b3fa2a?","30","[17,4,11,21,13,14,1,12,7,3,18,10,9,25,30,27,5,15,19,8,29,6,26,16,20,23,24,2,22,28]","[""U17"",""U4"",""U11"",""U21"",""P13"",""U14"",""P1"",""U12"",""P7"",""U3"",""P18"",""U10"",""P9"",""U25"",""U30"",""U27"",""P5"",""P15"",""P19"",""P8"",""P29"",""U6"",""P26"",""P16"",""U20"",""U23"",""P24"",""U2"",""U22"",""U28""]","[""P17"",""P4"",""P11"",""P21"",""U13"",""P14"",""U1"",""P12"",""U7"",""P3"",""U18"",""P10"",""U9"",""P25"",""P30"",""P27"",""U5"",""U15"",""U19"",""U8"",""U29"",""P6"",""U26"",""U16"",""P20"",""P23"",""U24"",""P2"",""P22"",""P28""]","5","5","0","0","0","0","","null","[""beach_v1.mp4""]","null","segmentation_video","","","","","","","","","beach_v1.mp4","beach","Predictable","[1.460791,2.468562,3.964632,4.924966,7.828866,9.10078,10.780813,11.940959,13.156954,14.252536,15.204644,16.428726,17.556872,18.716635,19.820657,20.997318,22.188792,24.396881,25.572758]","19","","P5","5","1","17","0.9521080000000008","false","false","false","","false","0","0","false","false","false","false",""
"","","","","","survey-multi-choice","83","2.0.0","756046","66","1","2026-06-08 14:05:25","segmentation_norming_randomized_order_maxrun_attention_v4","81.99.50.76","Mozilla/5.0 (Windows NT 10.0; Win64; x64) AppleWebKit/537.36 (KHTML, like Gecko) Chrome/148.0.0.0 Safari/537.36","WebKit","Chrome","148.0.0.0","Windows","10.0","https://uencdihehs.cognition.run/?PROLIFIC_PID=6a02fc6e1186071261f2734f&STUDY_ID=6a230fc25d128c9d1b56061a&STUDY_ID=6a230fc25d128c9d1b56061a&SESSION_ID=6a26cc17d17ccd6b54b3fa2a?PROLIFIC_PID=6a02fc6e1186071261f2734f&SESSION_ID=6a26cc17d17ccd6b54b3fa2a?","en-US,en;q=0.9","6a02fc6e1186071261f2734f","6a230fc25d128c9d1b56061a","6a26cc17d17ccd6b54b3fa2a?","6a02fc6e1186071261f2734f","6a230fc25d128c9d1b56061a","6a26cc17d17ccd6b54b3fa2a?","30","[17,4,11,21,13,14,1,12,7,3,18,10,9,25,30,27,5,15,19,8,29,6,26,16,20,23,24,2,22,28]","[""U17"",""U4"",""U11"",""U21"",""P13"",""U14"",""P1"",""U12"",""P7"",""U3"",""P18"",""U10"",""P9"",""U25"",""U30"",""U27"",""P5"",""P15"",""P19"",""P8"",""P29"",""U6"",""P26"",""P16"",""U20"",""U23"",""P24"",""U2"",""U22"",""U28""]","[""P17"",""P4"",""P11"",""P21"",""U13"",""P14"",""U1"",""P12"",""U7"",""P3"",""U18"",""P10"",""U9"",""P25"",""P30"",""P27"",""U5"",""U15"",""U19"",""U8"",""U29"",""P6"",""U26"",""U16"",""P20"",""P23"",""U24"",""P2"",""P22"",""P28""]","5","5","0","0","0","0","","2215","","{""confidence_rating"":""Moderately confident""}","confidence_question","[0]","","","","","","","","","beach","Predictable","","","","P5","5","1","17","","","","","","","","","","","","","Moderately confident"
"","","","","","video-keyboard-response","84","2.0.0","786990","66","1","2026-06-08 14:05:25","segmentation_norming_randomized_order_maxrun_attention_v4","81.99.50.76","Mozilla/5.0 (Windows NT 10.0; Win64; x64) AppleWebKit/537.36 (KHTML, like Gecko) Chrome/148.0.0.0 Safari/537.36","WebKit","Chrome","148.0.0.0","Windows","10.0","https://uencdihehs.cognition.run/?PROLIFIC_PID=6a02fc6e1186071261f2734f&STUDY_ID=6a230fc25d128c9d1b56061a&STUDY_ID=6a230fc25d128c9d1b56061a&SESSION_ID=6a26cc17d17ccd6b54b3fa2a?PROLIFIC_PID=6a02fc6e1186071261f2734f&SESSION_ID=6a26cc17d17ccd6b54b3fa2a?","en-US,en;q=0.9","6a02fc6e1186071261f2734f","6a230fc25d128c9d1b56061a","6a26cc17d17ccd6b54b3fa2a?","6a02fc6e1186071261f2734f","6a230fc25d128c9d1b56061a","6a26cc17d17ccd6b54b3fa2a?","30","[17,4,11,21,13,14,1,12,7,3,18,10,9,25,30,27,5,15,19,8,29,6,26,16,20,23,24,2,22,28]","[""U17"",""U4"",""U11"",""U21"",""P13"",""U14"",""P1"",""U12"",""P7"",""U3"",""P18"",""U10"",""P9"",""U25"",""U30"",""U27"",""P5"",""P15"",""P19"",""P8"",""P29"",""U6"",""P26"",""P16"",""U20"",""U23"",""P24"",""U2"",""U22"",""U28""]","[""P17"",""P4"",""P11"",""P21"",""U13"",""P14"",""U1"",""P12"",""U7"",""P3"",""U18"",""P10"",""U9"",""P25"",""P30"",""P27"",""U5"",""U15"",""U19"",""U8"",""U29"",""P6"",""U26"",""U16"",""P20"",""P23"",""U24"",""P2"",""P22"",""P28""]","5","5","0","0","0","0","","null","[""laundry_v1.mp4""]","null","segmentation_video","","","","","","","","","laundry_v1.mp4","laundry","Predictable","[1.544496,3.288945,4.064951,5.728742,7.856625,10.944651,14.592792,15.448797,16.400863,18.584627,21.312713,24.072581,24.976918,26.248628,27.616678,29.081016]","16","","P15","15","1","18","0.7760059999999998","false","false","false","","false","0","0","false","false","false","false",""
"","","","","","survey-multi-choice","87","2.0.0","789596","66","1","2026-06-08 14:05:25","segmentation_norming_randomized_order_maxrun_attention_v4","81.99.50.76","Mozilla/5.0 (Windows NT 10.0; Win64; x64) AppleWebKit/537.36 (KHTML, like Gecko) Chrome/148.0.0.0 Safari/537.36","WebKit","Chrome","148.0.0.0","Windows","10.0","https://uencdihehs.cognition.run/?PROLIFIC_PID=6a02fc6e1186071261f2734f&STUDY_ID=6a230fc25d128c9d1b56061a&STUDY_ID=6a230fc25d128c9d1b56061a&SESSION_ID=6a26cc17d17ccd6b54b3fa2a?PROLIFIC_PID=6a02fc6e1186071261f2734f&SESSION_ID=6a26cc17d17ccd6b54b3fa2a?","en-US,en;q=0.9","6a02fc6e1186071261f2734f","6a230fc25d128c9d1b56061a","6a26cc17d17ccd6b54b3fa2a?","6a02fc6e1186071261f2734f","6a230fc25d128c9d1b56061a","6a26cc17d17ccd6b54b3fa2a?","30","[17,4,11,21,13,14,1,12,7,3,18,10,9,25,30,27,5,15,19,8,29,6,26,16,20,23,24,2,22,28]","[""U17"",""U4"",""U11"",""U21"",""P13"",""U14"",""P1"",""U12"",""P7"",""U3"",""P18"",""U10"",""P9"",""U25"",""U30"",""U27"",""P5"",""P15"",""P19"",""P8"",""P29"",""U6"",""P26"",""P16"",""U20"",""U23"",""P24"",""U2"",""U22"",""U28""]","[""P17"",""P4"",""P11"",""P21"",""U13"",""P14"",""U1"",""P12"",""U7"",""P3"",""U18"",""P10"",""U9"",""P25"",""P30"",""P27"",""U5"",""U15"",""U19"",""U8"",""U29"",""P6"",""U26"",""U16"",""P20"",""P23"",""U24"",""P2"",""P22"",""P28""]","5","5","0","0","0","0","","2604","","{""confidence_rating"":""Moderately confident""}","confidence_question","[0]","","","","","","","","","laundry","Predictable","","","","P15","15","1","18","","","","","","","","","","","","","Moderately confident"
"","","","","","video-keyboard-response","88","2.0.0","824870","66","1","2026-06-08 14:05:25","segmentation_norming_randomized_order_maxrun_attention_v4","81.99.50.76","Mozilla/5.0 (Windows NT 10.0; Win64; x64) AppleWebKit/537.36 (KHTML, like Gecko) Chrome/148.0.0.0 Safari/537.36","WebKit","Chrome","148.0.0.0","Windows","10.0","https://uencdihehs.cognition.run/?PROLIFIC_PID=6a02fc6e1186071261f2734f&STUDY_ID=6a230fc25d128c9d1b56061a&STUDY_ID=6a230fc25d128c9d1b56061a&SESSION_ID=6a26cc17d17ccd6b54b3fa2a?PROLIFIC_PID=6a02fc6e1186071261f2734f&SESSION_ID=6a26cc17d17ccd6b54b3fa2a?","en-US,en;q=0.9","6a02fc6e1186071261f2734f","6a230fc25d128c9d1b56061a","6a26cc17d17ccd6b54b3fa2a?","6a02fc6e1186071261f2734f","6a230fc25d128c9d1b56061a","6a26cc17d17ccd6b54b3fa2a?","30","[17,4,11,21,13,14,1,12,7,3,18,10,9,25,30,27,5,15,19,8,29,6,26,16,20,23,24,2,22,28]","[""U17"",""U4"",""U11"",""U21"",""P13"",""U14"",""P1"",""U12"",""P7"",""U3"",""P18"",""U10"",""P9"",""U25"",""U30"",""U27"",""P5"",""P15"",""P19"",""P8"",""P29"",""U6"",""P26"",""P16"",""U20"",""U23"",""P24"",""U2"",""U22"",""U28""]","[""P17"",""P4"",""P11"",""P21"",""U13"",""P14"",""U1"",""P12"",""U7"",""P3"",""U18"",""P10"",""U9"",""P25"",""P30"",""P27"",""U5"",""U15"",""U19"",""U8"",""U29"",""P6"",""U26"",""U16"",""P20"",""P23"",""U24"",""P2"",""P22"",""P28""]","5","5","0","0","0","0","","null","[""party_v1.mp4""]","null","segmentation_video","","","","","","","","","party_v1.mp4","party","Predictable","[1.376545,2.232853,3.992635,5.360562,7.056523,9.144799,11.000796,12.921159,15.728391,19.816914,21.296623,24.200934,26.280909,28.872919,30.864535,32.312701,34.064719]","17","","P19","19","1","19","0.8563080000000001","false","false","false","","false","0","0","false","false","false","false",""
"","","","","","survey-multi-choice","91","2.0.0","827169","66","1","2026-06-08 14:05:25","segmentation_norming_randomized_order_maxrun_attention_v4","81.99.50.76","Mozilla/5.0 (Windows NT 10.0; Win64; x64) AppleWebKit/537.36 (KHTML, like Gecko) Chrome/148.0.0.0 Safari/537.36","WebKit","Chrome","148.0.0.0","Windows","10.0","https://uencdihehs.cognition.run/?PROLIFIC_PID=6a02fc6e1186071261f2734f&STUDY_ID=6a230fc25d128c9d1b56061a&STUDY_ID=6a230fc25d128c9d1b56061a&SESSION_ID=6a26cc17d17ccd6b54b3fa2a?PROLIFIC_PID=6a02fc6e1186071261f2734f&SESSION_ID=6a26cc17d17ccd6b54b3fa2a?","en-US,en;q=0.9","6a02fc6e1186071261f2734f","6a230fc25d128c9d1b56061a","6a26cc17d17ccd6b54b3fa2a?","6a02fc6e1186071261f2734f","6a230fc25d128c9d1b56061a","6a26cc17d17ccd6b54b3fa2a?","30","[17,4,11,21,13,14,1,12,7,3,18,10,9,25,30,27,5,15,19,8,29,6,26,16,20,23,24,2,22,28]","[""U17"",""U4"",""U11"",""U21"",""P13"",""U14"",""P1"",""U12"",""P7"",""U3"",""P18"",""U10"",""P9"",""U25"",""U30"",""U27"",""P5"",""P15"",""P19"",""P8"",""P29"",""U6"",""P26"",""P16"",""U20"",""U23"",""P24"",""U2"",""U22"",""U28""]","[""P17"",""P4"",""P11"",""P21"",""U13"",""P14"",""U1"",""P12"",""U7"",""P3"",""U18"",""P10"",""U9"",""P25"",""P30"",""P27"",""U5"",""U15"",""U19"",""U8"",""U29"",""P6"",""U26"",""U16"",""P20"",""P23"",""U24"",""P2"",""P22"",""P28""]","5","5","0","0","0","0","","2298","","{""confidence_rating"":""Moderately confident""}","confidence_question","[0]","","","","","","","","","party","Predictable","","","","P19","19","1","19","","","","","","","","","","","","","Moderately confident"
"","","","","","video-keyboard-response","92","2.0.0","866730","66","1","2026-06-08 14:05:25","segmentation_norming_randomized_order_maxrun_attention_v4","81.99.50.76","Mozilla/5.0 (Windows NT 10.0; Win64; x64) AppleWebKit/537.36 (KHTML, like Gecko) Chrome/148.0.0.0 Safari/537.36","WebKit","Chrome","148.0.0.0","Windows","10.0","https://uencdihehs.cognition.run/?PROLIFIC_PID=6a02fc6e1186071261f2734f&STUDY_ID=6a230fc25d128c9d1b56061a&STUDY_ID=6a230fc25d128c9d1b56061a&SESSION_ID=6a26cc17d17ccd6b54b3fa2a?PROLIFIC_PID=6a02fc6e1186071261f2734f&SESSION_ID=6a26cc17d17ccd6b54b3fa2a?","en-US,en;q=0.9","6a02fc6e1186071261f2734f","6a230fc25d128c9d1b56061a","6a26cc17d17ccd6b54b3fa2a?","6a02fc6e1186071261f2734f","6a230fc25d128c9d1b56061a","6a26cc17d17ccd6b54b3fa2a?","30","[17,4,11,21,13,14,1,12,7,3,18,10,9,25,30,27,5,15,19,8,29,6,26,16,20,23,24,2,22,28]","[""U17"",""U4"",""U11"",""U21"",""P13"",""U14"",""P1"",""U12"",""P7"",""U3"",""P18"",""U10"",""P9"",""U25"",""U30"",""U27"",""P5"",""P15"",""P19"",""P8"",""P29"",""U6"",""P26"",""P16"",""U20"",""U23"",""P24"",""U2"",""U22"",""U28""]","[""P17"",""P4"",""P11"",""P21"",""U13"",""P14"",""U1"",""P12"",""U7"",""P3"",""U18"",""P10"",""U9"",""P25"",""P30"",""P27"",""U5"",""U15"",""U19"",""U8"",""U29"",""P6"",""U26"",""U16"",""P20"",""P23"",""U24"",""P2"",""P22"",""P28""]","5","5","0","0","0","0","","null","[""car_v1.mp4""]","null","segmentation_video","","","","","","","","","car_v1.mp4","car","Predictable","[1.852632,3.100506,3.932456,4.468629,5.492624,6.012613,7.020658,8.412832,9.668919,12.621175,14.07642,15.412715,17.172773,20.516825,23.445717,27.380942,29.253305,31.932708,33.49271,35.788816,37.925062]","21","","P8","8","1","20","0.5199889999999998","false","false","false","","false","0","0","false","false","false","false",""
"","","","","","survey-multi-choice","95","2.0.0","869460","66","1","2026-06-08 14:05:25","segmentation_norming_randomized_order_maxrun_attention_v4","81.99.50.76","Mozilla/5.0 (Windows NT 10.0; Win64; x64) AppleWebKit/537.36 (KHTML, like Gecko) Chrome/148.0.0.0 Safari/537.36","WebKit","Chrome","148.0.0.0","Windows","10.0","https://uencdihehs.cognition.run/?PROLIFIC_PID=6a02fc6e1186071261f2734f&STUDY_ID=6a230fc25d128c9d1b56061a&STUDY_ID=6a230fc25d128c9d1b56061a&SESSION_ID=6a26cc17d17ccd6b54b3fa2a?PROLIFIC_PID=6a02fc6e1186071261f2734f&SESSION_ID=6a26cc17d17ccd6b54b3fa2a?","en-US,en;q=0.9","6a02fc6e1186071261f2734f","6a230fc25d128c9d1b56061a","6a26cc17d17ccd6b54b3fa2a?","6a02fc6e1186071261f2734f","6a230fc25d128c9d1b56061a","6a26cc17d17ccd6b54b3fa2a?","30","[17,4,11,21,13,14,1,12,7,3,18,10,9,25,30,27,5,15,19,8,29,6,26,16,20,23,24,2,22,28]","[""U17"",""U4"",""U11"",""U21"",""P13"",""U14"",""P1"",""U12"",""P7"",""U3"",""P18"",""U10"",""P9"",""U25"",""U30"",""U27"",""P5"",""P15"",""P19"",""P8"",""P29"",""U6"",""P26"",""P16"",""U20"",""U23"",""P24"",""U2"",""U22"",""U28""]","[""P17"",""P4"",""P11"",""P21"",""U13"",""P14"",""U1"",""P12"",""U7"",""P3"",""U18"",""P10"",""U9"",""P25"",""P30"",""P27"",""U5"",""U15"",""U19"",""U8"",""U29"",""P6"",""U26"",""U16"",""P20"",""P23"",""U24"",""P2"",""P22"",""P28""]","5","5","0","0","0","0","","2728","","{""confidence_rating"":""Neutral""}","confidence_question","[0]","","","","","","","","","car","Predictable","","","","P8","8","1","20","","","","","","","","","","","","","Neutral"
"","","","","","video-keyboard-response","96","2.0.0","891090","66","1","2026-06-08 14:05:25","segmentation_norming_randomized_order_maxrun_attention_v4","81.99.50.76","Mozilla/5.0 (Windows NT 10.0; Win64; x64) AppleWebKit/537.36 (KHTML, like Gecko) Chrome/148.0.0.0 Safari/537.36","WebKit","Chrome","148.0.0.0","Windows","10.0","https://uencdihehs.cognition.run/?PROLIFIC_PID=6a02fc6e1186071261f2734f&STUDY_ID=6a230fc25d128c9d1b56061a&STUDY_ID=6a230fc25d128c9d1b56061a&SESSION_ID=6a26cc17d17ccd6b54b3fa2a?PROLIFIC_PID=6a02fc6e1186071261f2734f&SESSION_ID=6a26cc17d17ccd6b54b3fa2a?","en-US,en;q=0.9","6a02fc6e1186071261f2734f","6a230fc25d128c9d1b56061a","6a26cc17d17ccd6b54b3fa2a?","6a02fc6e1186071261f2734f","6a230fc25d128c9d1b56061a","6a26cc17d17ccd6b54b3fa2a?","30","[17,4,11,21,13,14,1,12,7,3,18,10,9,25,30,27,5,15,19,8,29,6,26,16,20,23,24,2,22,28]","[""U17"",""U4"",""U11"",""U21"",""P13"",""U14"",""P1"",""U12"",""P7"",""U3"",""P18"",""U10"",""P9"",""U25"",""U30"",""U27"",""P5"",""P15"",""P19"",""P8"",""P29"",""U6"",""P26"",""P16"",""U20"",""U23"",""P24"",""U2"",""U22"",""U28""]","[""P17"",""P4"",""P11"",""P21"",""U13"",""P14"",""U1"",""P12"",""U7"",""P3"",""U18"",""P10"",""U9"",""P25"",""P30"",""P27"",""U5"",""U15"",""U19"",""U8"",""U29"",""P6"",""U26"",""U16"",""P20"",""P23"",""U24"",""P2"",""P22"",""P28""]","5","5","0","0","0","0","","null","[""walking_v1.mp4""]","null","segmentation_video","","","","","","","","","walking_v1.mp4","walking","Predictable","[1.91671,3.444545,5.588843,7.484526,9.068925,11.236777,12.612465,13.900606,15.564523,18.221186,20.429108]","11","","P29","29","1","21","1.2881409999999995","false","false","false","","false","0","0","false","false","false","false",""
"","","","","","survey-multi-choice","99","2.0.0","893340","66","1","2026-06-08 14:05:25","segmentation_norming_randomized_order_maxrun_attention_v4","81.99.50.76","Mozilla/5.0 (Windows NT 10.0; Win64; x64) AppleWebKit/537.36 (KHTML, like Gecko) Chrome/148.0.0.0 Safari/537.36","WebKit","Chrome","148.0.0.0","Windows","10.0","https://uencdihehs.cognition.run/?PROLIFIC_PID=6a02fc6e1186071261f2734f&STUDY_ID=6a230fc25d128c9d1b56061a&STUDY_ID=6a230fc25d128c9d1b56061a&SESSION_ID=6a26cc17d17ccd6b54b3fa2a?PROLIFIC_PID=6a02fc6e1186071261f2734f&SESSION_ID=6a26cc17d17ccd6b54b3fa2a?","en-US,en;q=0.9","6a02fc6e1186071261f2734f","6a230fc25d128c9d1b56061a","6a26cc17d17ccd6b54b3fa2a?","6a02fc6e1186071261f2734f","6a230fc25d128c9d1b56061a","6a26cc17d17ccd6b54b3fa2a?","30","[17,4,11,21,13,14,1,12,7,3,18,10,9,25,30,27,5,15,19,8,29,6,26,16,20,23,24,2,22,28]","[""U17"",""U4"",""U11"",""U21"",""P13"",""U14"",""P1"",""U12"",""P7"",""U3"",""P18"",""U10"",""P9"",""U25"",""U30"",""U27"",""P5"",""P15"",""P19"",""P8"",""P29"",""U6"",""P26"",""P16"",""U20"",""U23"",""P24"",""U2"",""U22"",""U28""]","[""P17"",""P4"",""P11"",""P21"",""U13"",""P14"",""U1"",""P12"",""U7"",""P3"",""U18"",""P10"",""U9"",""P25"",""P30"",""P27"",""U5"",""U15"",""U19"",""U8"",""U29"",""P6"",""U26"",""U16"",""P20"",""P23"",""U24"",""P2"",""P22"",""P28""]","5","5","0","0","0","0","","2248","","{""confidence_rating"":""Moderately confident""}","confidence_question","[0]","","","","","","","","","walking","Predictable","","","","P29","29","1","21","","","","","","","","","","","","","Moderately confident"
"","","","","","video-keyboard-response","100","2.0.0","928130","66","1","2026-06-08 14:05:25","segmentation_norming_randomized_order_maxrun_attention_v4","81.99.50.76","Mozilla/5.0 (Windows NT 10.0; Win64; x64) AppleWebKit/537.36 (KHTML, like Gecko) Chrome/148.0.0.0 Safari/537.36","WebKit","Chrome","148.0.0.0","Windows","10.0","https://uencdihehs.cognition.run/?PROLIFIC_PID=6a02fc6e1186071261f2734f&STUDY_ID=6a230fc25d128c9d1b56061a&STUDY_ID=6a230fc25d128c9d1b56061a&SESSION_ID=6a26cc17d17ccd6b54b3fa2a?PROLIFIC_PID=6a02fc6e1186071261f2734f&SESSION_ID=6a26cc17d17ccd6b54b3fa2a?","en-US,en;q=0.9","6a02fc6e1186071261f2734f","6a230fc25d128c9d1b56061a","6a26cc17d17ccd6b54b3fa2a?","6a02fc6e1186071261f2734f","6a230fc25d128c9d1b56061a","6a26cc17d17ccd6b54b3fa2a?","30","[17,4,11,21,13,14,1,12,7,3,18,10,9,25,30,27,5,15,19,8,29,6,26,16,20,23,24,2,22,28]","[""U17"",""U4"",""U11"",""U21"",""P13"",""U14"",""P1"",""U12"",""P7"",""U3"",""P18"",""U10"",""P9"",""U25"",""U30"",""U27"",""P5"",""P15"",""P19"",""P8"",""P29"",""U6"",""P26"",""P16"",""U20"",""U23"",""P24"",""U2"",""U22"",""U28""]","[""P17"",""P4"",""P11"",""P21"",""U13"",""P14"",""U1"",""P12"",""U7"",""P3"",""U18"",""P10"",""U9"",""P25"",""P30"",""P27"",""U5"",""U15"",""U19"",""U8"",""U29"",""P6"",""U26"",""U16"",""P20"",""P23"",""U24"",""P2"",""P22"",""P28""]","5","5","0","0","0","0","","null","[""bedding_v2.mp4""]","null","segmentation_video","","","","","","","","","bedding_v2.mp4","bedding","Unpredictable","[1.812524,3.26096,5.068755,7.132542,9.052929,11.276952,12.50853,15.868545,18.204791,19.732478,22.380792,24.068542,25.988745,29.084821,30.444562,32.164499,34.20495]","17","","U6","6","1","22","1.2315780000000007","false","false","false","","false","0","0","false","false","false","false",""
"","","","","","survey-multi-choice","103","2.0.0","931680","66","1","2026-06-08 14:05:25","segmentation_norming_randomized_order_maxrun_attention_v4","81.99.50.76","Mozilla/5.0 (Windows NT 10.0; Win64; x64) AppleWebKit/537.36 (KHTML, like Gecko) Chrome/148.0.0.0 Safari/537.36","WebKit","Chrome","148.0.0.0","Windows","10.0","https://uencdihehs.cognition.run/?PROLIFIC_PID=6a02fc6e1186071261f2734f&STUDY_ID=6a230fc25d128c9d1b56061a&STUDY_ID=6a230fc25d128c9d1b56061a&SESSION_ID=6a26cc17d17ccd6b54b3fa2a?PROLIFIC_PID=6a02fc6e1186071261f2734f&SESSION_ID=6a26cc17d17ccd6b54b3fa2a?","en-US,en;q=0.9","6a02fc6e1186071261f2734f","6a230fc25d128c9d1b56061a","6a26cc17d17ccd6b54b3fa2a?","6a02fc6e1186071261f2734f","6a230fc25d128c9d1b56061a","6a26cc17d17ccd6b54b3fa2a?","30","[17,4,11,21,13,14,1,12,7,3,18,10,9,25,30,27,5,15,19,8,29,6,26,16,20,23,24,2,22,28]","[""U17"",""U4"",""U11"",""U21"",""P13"",""U14"",""P1"",""U12"",""P7"",""U3"",""P18"",""U10"",""P9"",""U25"",""U30"",""U27"",""P5"",""P15"",""P19"",""P8"",""P29"",""U6"",""P26"",""P16"",""U20"",""U23"",""P24"",""U2"",""U22"",""U28""]","[""P17"",""P4"",""P11"",""P21"",""U13"",""P14"",""U1"",""P12"",""U7"",""P3"",""U18"",""P10"",""U9"",""P25"",""P30"",""P27"",""U5"",""U15"",""U19"",""U8"",""U29"",""P6"",""U26"",""U16"",""P20"",""P23"",""U24"",""P2"",""P22"",""P28""]","5","5","0","0","0","0","","3549","","{""confidence_rating"":""Moderately confident""}","confidence_question","[0]","","","","","","","","","bedding","Unpredictable","","","","U6","6","1","22","","","","","","","","","","","","","Moderately confident"
"","","","","","video-keyboard-response","104","2.0.0","971910","66","1","2026-06-08 14:05:25","segmentation_norming_randomized_order_maxrun_attention_v4","81.99.50.76","Mozilla/5.0 (Windows NT 10.0; Win64; x64) AppleWebKit/537.36 (KHTML, like Gecko) Chrome/148.0.0.0 Safari/537.36","WebKit","Chrome","148.0.0.0","Windows","10.0","https://uencdihehs.cognition.run/?PROLIFIC_PID=6a02fc6e1186071261f2734f&STUDY_ID=6a230fc25d128c9d1b56061a&STUDY_ID=6a230fc25d128c9d1b56061a&SESSION_ID=6a26cc17d17ccd6b54b3fa2a?PROLIFIC_PID=6a02fc6e1186071261f2734f&SESSION_ID=6a26cc17d17ccd6b54b3fa2a?","en-US,en;q=0.9","6a02fc6e1186071261f2734f","6a230fc25d128c9d1b56061a","6a26cc17d17ccd6b54b3fa2a?","6a02fc6e1186071261f2734f","6a230fc25d128c9d1b56061a","6a26cc17d17ccd6b54b3fa2a?","30","[17,4,11,21,13,14,1,12,7,3,18,10,9,25,30,27,5,15,19,8,29,6,26,16,20,23,24,2,22,28]","[""U17"",""U4"",""U11"",""U21"",""P13"",""U14"",""P1"",""U12"",""P7"",""U3"",""P18"",""U10"",""P9"",""U25"",""U30"",""U27"",""P5"",""P15"",""P19"",""P8"",""P29"",""U6"",""P26"",""P16"",""U20"",""U23"",""P24"",""U2"",""U22"",""U28""]","[""P17"",""P4"",""P11"",""P21"",""U13"",""P14"",""U1"",""P12"",""U7"",""P3"",""U18"",""P10"",""U9"",""P25"",""P30"",""P27"",""U5"",""U15"",""U19"",""U8"",""U29"",""P6"",""U26"",""U16"",""P20"",""P23"",""U24"",""P2"",""P22"",""P28""]","5","5","0","0","0","0","","null","[""sunbathing_v1.mp4""]","null","segmentation_video","","","","","","","","","sunbathing_v1.mp4","sunbathing","Predictable","[3.176841,5.480606,8.056906,9.056667,12.849018,15.073204,17.312842,18.120964,19.4647,22.968792,24.144751,26.472951,29.912554,31.28853,32.544785,33.776723,36.24858,38.064911]","18","","P26","26","1","23","0.8081220000000009","false","false","false","","false","0","0","false","false","false","false",""
